subject,block,trial,mu1,mu2,choice,reward,RT,higher_mean,chose_higher,mean_diff_abs,mean_diff_abs_cut,previous_choice,repeat_choice,switch_choice
1,1,1,-1,-2,1,0,1655,1,TRUE,1,< 5,NA,0,1
1,1,2,-1,-2,2,-4,652,1,FALSE,1,< 5,1,0,1
1,1,3,-1,-2,1,-1,479,1,TRUE,1,< 5,2,0,1
1,1,4,-1,-2,1,-2,839,1,TRUE,1,< 5,1,1,0
1,1,5,-1,-2,2,-1,424,1,FALSE,1,< 5,1,0,1
1,1,6,-1,-2,1,0,426,1,TRUE,1,< 5,2,0,1
1,1,7,-1,-2,1,-3,407,1,TRUE,1,< 5,1,1,0
1,1,8,-1,-2,2,-1,686,1,FALSE,1,< 5,1,0,1
1,1,9,-1,-2,1,-1,391,1,TRUE,1,< 5,2,0,1
1,1,10,-1,-2,1,-1,350,1,TRUE,1,< 5,1,1,0
1,2,1,0,-10,1,0,670,1,TRUE,10,5 - 10,NA,0,1
1,2,2,0,-10,2,-8,375,1,FALSE,10,5 - 10,1,0,1
1,2,3,0,-10,1,-2,367,1,TRUE,10,5 - 10,2,0,1
1,2,4,0,-10,1,0,415,1,TRUE,10,5 - 10,1,1,0
1,2,5,0,-10,1,0,407,1,TRUE,10,5 - 10,1,1,0
1,2,6,0,-10,1,-1,368,1,TRUE,10,5 - 10,1,1,0
1,2,7,0,-10,2,-11,471,1,FALSE,10,5 - 10,1,0,1
1,2,8,0,-10,1,1,335,1,TRUE,10,5 - 10,2,0,1
1,2,9,0,-10,1,0,351,1,TRUE,10,5 - 10,1,1,0
1,2,10,0,-10,2,-10,367,1,FALSE,10,5 - 10,1,0,1
1,3,1,-5,3,1,-5,530,2,FALSE,8,5 - 10,NA,0,1
1,3,2,-5,3,2,2,302,2,TRUE,8,5 - 10,1,0,1
1,3,3,-5,3,2,2,375,2,TRUE,8,5 - 10,2,1,0
1,3,4,-5,3,2,3,360,2,TRUE,8,5 - 10,2,1,0
1,3,5,-5,3,2,2,319,2,TRUE,8,5 - 10,2,1,0
1,3,6,-5,3,2,1,335,2,TRUE,8,5 - 10,2,1,0
1,3,7,-5,3,2,2,385,2,TRUE,8,5 - 10,2,1,0
1,3,8,-5,3,2,4,350,2,TRUE,8,5 - 10,2,1,0
1,3,9,-5,3,2,3,367,2,TRUE,8,5 - 10,2,1,0
1,3,10,-5,3,2,4,391,2,TRUE,8,5 - 10,2,1,0
1,4,1,-2,1,2,1,683,2,TRUE,3,< 5,NA,0,1
1,4,2,-2,1,2,3,319,2,TRUE,3,< 5,2,1,0
1,4,3,-2,1,1,-2,502,2,FALSE,3,< 5,2,0,1
1,4,4,-2,1,2,3,543,2,TRUE,3,< 5,1,0,1
1,4,5,-2,1,2,1,327,2,TRUE,3,< 5,2,1,0
1,4,6,-2,1,2,1,342,2,TRUE,3,< 5,2,1,0
1,4,7,-2,1,2,0,342,2,TRUE,3,< 5,2,1,0
1,4,8,-2,1,2,1,383,2,TRUE,3,< 5,2,1,0
1,4,9,-2,1,2,2,424,2,TRUE,3,< 5,2,1,0
1,4,10,-2,1,2,1,390,2,TRUE,3,< 5,2,1,0
1,5,1,-2,-11,2,-11,504,1,FALSE,9,5 - 10,NA,0,1
1,5,2,-2,-11,1,-2,415,1,TRUE,9,5 - 10,2,0,1
1,5,3,-2,-11,1,-3,596,1,TRUE,9,5 - 10,1,1,0
1,5,4,-2,-11,1,-2,485,1,TRUE,9,5 - 10,1,1,0
1,5,5,-2,-11,1,-2,493,1,TRUE,9,5 - 10,1,1,0
1,5,6,-2,-11,1,-3,399,1,TRUE,9,5 - 10,1,1,0
1,5,7,-2,-11,1,-1,392,1,TRUE,9,5 - 10,1,1,0
1,5,8,-2,-11,1,-6,424,1,TRUE,9,5 - 10,1,1,0
1,5,9,-2,-11,2,-10,503,1,FALSE,9,5 - 10,1,0,1
1,5,10,-2,-11,1,-3,351,1,TRUE,9,5 - 10,2,0,1
1,6,1,-5,-9,1,-6,656,1,TRUE,4,< 5,NA,0,1
1,6,2,-5,-9,2,-9,365,1,FALSE,4,< 5,1,0,1
1,6,3,-5,-9,1,-5,519,1,TRUE,4,< 5,2,0,1
1,6,4,-5,-9,1,-5,342,1,TRUE,4,< 5,1,1,0
1,6,5,-5,-9,1,-5,319,1,TRUE,4,< 5,1,1,0
1,6,6,-5,-9,1,-4,423,1,TRUE,4,< 5,1,1,0
1,6,7,-5,-9,1,-5,399,1,TRUE,4,< 5,1,1,0
1,6,8,-5,-9,1,-6,405,1,TRUE,4,< 5,1,1,0
1,6,9,-5,-9,1,-4,359,1,TRUE,4,< 5,1,1,0
1,6,10,-5,-9,1,-3,375,1,TRUE,4,< 5,1,1,0
1,7,1,1,0,1,1,774,1,TRUE,1,< 5,NA,0,1
1,7,2,1,0,1,-1,366,1,TRUE,1,< 5,1,1,0
1,7,3,1,0,2,0,340,1,FALSE,1,< 5,1,0,1
1,7,4,1,0,2,0,335,1,FALSE,1,< 5,2,1,0
1,7,5,1,0,2,-1,439,1,FALSE,1,< 5,2,1,0
1,7,6,1,0,1,-1,368,1,TRUE,1,< 5,2,0,1
1,7,7,1,0,1,3,463,1,TRUE,1,< 5,1,1,0
1,7,8,1,0,1,0,343,1,TRUE,1,< 5,1,1,0
1,7,9,1,0,1,2,367,1,TRUE,1,< 5,1,1,0
1,7,10,1,0,1,-1,359,1,TRUE,1,< 5,1,1,0
1,8,1,1,-7,1,1,464,1,TRUE,8,5 - 10,NA,0,1
1,8,2,1,-7,1,1,396,1,TRUE,8,5 - 10,1,1,0
1,8,3,1,-7,1,-1,334,1,TRUE,8,5 - 10,1,1,0
1,8,4,1,-7,1,4,351,1,TRUE,8,5 - 10,1,1,0
1,8,5,1,-7,1,2,383,1,TRUE,8,5 - 10,1,1,0
1,8,6,1,-7,1,-1,360,1,TRUE,8,5 - 10,1,1,0
1,8,7,1,-7,1,0,343,1,TRUE,8,5 - 10,1,1,0
1,8,8,1,-7,1,0,455,1,TRUE,8,5 - 10,1,1,0
1,8,9,1,-7,1,2,415,1,TRUE,8,5 - 10,1,1,0
1,8,10,1,-7,1,1,415,1,TRUE,8,5 - 10,1,1,0
1,9,1,9,-4,1,8,474,1,TRUE,13,10 - 15,NA,0,1
1,9,2,9,-4,1,8,407,1,TRUE,13,10 - 15,1,1,0
1,9,3,9,-4,1,8,510,1,TRUE,13,10 - 15,1,1,0
1,9,4,9,-4,2,-4,320,1,FALSE,13,10 - 15,1,0,1
1,9,5,9,-4,1,7,351,1,TRUE,13,10 - 15,2,0,1
1,9,6,9,-4,1,11,352,1,TRUE,13,10 - 15,1,1,0
1,9,7,9,-4,1,6,376,1,TRUE,13,10 - 15,1,1,0
1,9,8,9,-4,1,8,535,1,TRUE,13,10 - 15,1,1,0
1,9,9,9,-4,1,9,423,1,TRUE,13,10 - 15,1,1,0
1,9,10,9,-4,1,10,615,1,TRUE,13,10 - 15,1,1,0
1,10,1,-8,-8,1,-9,961,1,TRUE,0,< 5,NA,0,1
1,10,2,-8,-8,2,-10,423,1,FALSE,0,< 5,1,0,1
1,10,3,-8,-8,1,-8,382,1,TRUE,0,< 5,2,0,1
1,10,4,-8,-8,1,-9,318,1,TRUE,0,< 5,1,1,0
1,10,5,-8,-8,1,-9,367,1,TRUE,0,< 5,1,1,0
1,10,6,-8,-8,1,-8,511,1,TRUE,0,< 5,1,1,0
1,10,7,-8,-8,1,-9,383,1,TRUE,0,< 5,1,1,0
1,10,8,-8,-8,1,-9,359,1,TRUE,0,< 5,1,1,0
1,10,9,-8,-8,1,-9,342,1,TRUE,0,< 5,1,1,0
1,10,10,-8,-8,1,-7,366,1,TRUE,0,< 5,1,1,0
1,11,1,11,16,1,10,554,2,FALSE,5,< 5,NA,0,1
1,11,2,11,16,1,10,397,2,FALSE,5,< 5,1,1,0
1,11,3,11,16,1,12,359,2,FALSE,5,< 5,1,1,0
1,11,4,11,16,1,11,377,2,FALSE,5,< 5,1,1,0
1,11,5,11,16,2,17,359,2,TRUE,5,< 5,1,0,1
1,11,6,11,16,2,16,406,2,TRUE,5,< 5,2,1,0
1,11,7,11,16,2,18,310,2,TRUE,5,< 5,2,1,0
1,11,8,11,16,2,16,367,2,TRUE,5,< 5,2,1,0
1,11,9,11,16,2,17,352,2,TRUE,5,< 5,2,1,0
1,11,10,11,16,2,16,336,2,TRUE,5,< 5,2,1,0
1,12,1,-11,4,2,5,734,2,TRUE,15,10 - 15,NA,0,1
1,12,2,-11,4,1,-12,343,2,FALSE,15,10 - 15,2,0,1
1,12,3,-11,4,2,4,343,2,TRUE,15,10 - 15,1,0,1
1,12,4,-11,4,2,4,383,2,TRUE,15,10 - 15,2,1,0
1,12,5,-11,4,2,3,375,2,TRUE,15,10 - 15,2,1,0
1,12,6,-11,4,2,5,358,2,TRUE,15,10 - 15,2,1,0
1,12,7,-11,4,2,4,359,2,TRUE,15,10 - 15,2,1,0
1,12,8,-11,4,2,5,351,2,TRUE,15,10 - 15,2,1,0
1,12,9,-11,4,2,4,352,2,TRUE,15,10 - 15,2,1,0
1,12,10,-11,4,2,3,355,2,TRUE,15,10 - 15,2,1,0
1,13,1,-3,4,2,5,544,2,TRUE,7,5 - 10,NA,0,1
1,13,2,-3,4,1,-2,342,2,FALSE,7,5 - 10,2,0,1
1,13,3,-3,4,2,3,327,2,TRUE,7,5 - 10,1,0,1
1,13,4,-3,4,2,5,351,2,TRUE,7,5 - 10,2,1,0
1,13,5,-3,4,2,2,383,2,TRUE,7,5 - 10,2,1,0
1,13,6,-3,4,2,5,383,2,TRUE,7,5 - 10,2,1,0
1,13,7,-3,4,2,4,406,2,TRUE,7,5 - 10,2,1,0
1,13,8,-3,4,2,3,335,2,TRUE,7,5 - 10,2,1,0
1,13,9,-3,4,2,4,367,2,TRUE,7,5 - 10,2,1,0
1,13,10,-3,4,2,4,367,2,TRUE,7,5 - 10,2,1,0
1,14,1,-6,-6,2,-5,543,1,FALSE,0,< 5,NA,0,1
1,14,2,-6,-6,1,-6,344,1,TRUE,0,< 5,2,0,1
1,14,3,-6,-6,2,-5,375,1,FALSE,0,< 5,1,0,1
1,14,4,-6,-6,1,-7,356,1,TRUE,0,< 5,2,0,1
1,14,5,-6,-6,1,-6,374,1,TRUE,0,< 5,1,1,0
1,14,6,-6,-6,1,-4,374,1,TRUE,0,< 5,1,1,0
1,14,7,-6,-6,2,-7,503,1,FALSE,0,< 5,1,0,1
1,14,8,-6,-6,1,-6,431,1,TRUE,0,< 5,2,0,1
1,14,9,-6,-6,1,-7,383,1,TRUE,0,< 5,1,1,0
1,14,10,-6,-6,1,-7,367,1,TRUE,0,< 5,1,1,0
1,15,1,-16,-9,1,-19,743,2,FALSE,7,5 - 10,NA,0,1
1,15,2,-16,-9,2,-9,327,2,TRUE,7,5 - 10,1,0,1
1,15,3,-16,-9,2,-8,325,2,TRUE,7,5 - 10,2,1,0
1,15,4,-16,-9,2,-8,334,2,TRUE,7,5 - 10,2,1,0
1,15,5,-16,-9,2,-8,319,2,TRUE,7,5 - 10,2,1,0
1,15,6,-16,-9,2,-10,488,2,TRUE,7,5 - 10,2,1,0
1,15,7,-16,-9,1,-16,688,2,FALSE,7,5 - 10,2,0,1
1,15,8,-16,-9,2,-9,335,2,TRUE,7,5 - 10,1,0,1
1,15,9,-16,-9,2,-9,358,2,TRUE,7,5 - 10,2,1,0
1,15,10,-16,-9,2,-8,904,2,TRUE,7,5 - 10,2,1,0
1,16,1,-7,8,2,9,454,2,TRUE,15,10 - 15,NA,0,1
1,16,2,-7,8,1,-8,390,2,FALSE,15,10 - 15,2,0,1
1,16,3,-7,8,2,8,319,2,TRUE,15,10 - 15,1,0,1
1,16,4,-7,8,2,10,351,2,TRUE,15,10 - 15,2,1,0
1,16,5,-7,8,2,9,359,2,TRUE,15,10 - 15,2,1,0
1,16,6,-7,8,2,9,320,2,TRUE,15,10 - 15,2,1,0
1,16,7,-7,8,2,9,369,2,TRUE,15,10 - 15,2,1,0
1,16,8,-7,8,2,8,382,2,TRUE,15,10 - 15,2,1,0
1,16,9,-7,8,2,7,383,2,TRUE,15,10 - 15,2,1,0
1,16,10,-7,8,2,7,423,2,TRUE,15,10 - 15,2,1,0
1,17,1,15,2,2,2,520,1,FALSE,13,10 - 15,NA,0,1
1,17,2,15,2,1,16,334,1,TRUE,13,10 - 15,2,0,1
1,17,3,15,2,1,15,343,1,TRUE,13,10 - 15,1,1,0
1,17,4,15,2,1,15,335,1,TRUE,13,10 - 15,1,1,0
1,17,5,15,2,1,16,344,1,TRUE,13,10 - 15,1,1,0
1,17,6,15,2,1,16,335,1,TRUE,13,10 - 15,1,1,0
1,17,7,15,2,1,14,352,1,TRUE,13,10 - 15,1,1,0
1,17,8,15,2,1,15,383,1,TRUE,13,10 - 15,1,1,0
1,17,9,15,2,1,15,343,1,TRUE,13,10 - 15,1,1,0
1,17,10,15,2,1,14,327,1,TRUE,13,10 - 15,1,1,0
1,18,1,-6,-4,2,-3,491,2,TRUE,2,< 5,NA,0,1
1,18,2,-6,-4,1,-5,512,2,FALSE,2,< 5,2,0,1
1,18,3,-6,-4,1,-6,399,2,FALSE,2,< 5,1,1,0
1,18,4,-6,-4,2,-6,327,2,TRUE,2,< 5,1,0,1
1,18,5,-6,-4,1,-7,406,2,FALSE,2,< 5,2,0,1
1,18,6,-6,-4,2,-2,328,2,TRUE,2,< 5,1,0,1
1,18,7,-6,-4,1,-6,343,2,FALSE,2,< 5,2,0,1
1,18,8,-6,-4,2,-4,344,2,TRUE,2,< 5,1,0,1
1,18,9,-6,-4,1,-6,377,2,FALSE,2,< 5,2,0,1
1,18,10,-6,-4,2,-2,327,2,TRUE,2,< 5,1,0,1
1,19,1,2,18,2,18,484,2,TRUE,16,> 15,NA,0,1
1,19,2,2,18,1,1,359,2,FALSE,16,> 15,2,0,1
1,19,3,2,18,2,18,343,2,TRUE,16,> 15,1,0,1
1,19,4,2,18,2,18,311,2,TRUE,16,> 15,2,1,0
1,19,5,2,18,2,17,343,2,TRUE,16,> 15,2,1,0
1,19,6,2,18,2,18,351,2,TRUE,16,> 15,2,1,0
1,19,7,2,18,2,18,359,2,TRUE,16,> 15,2,1,0
1,19,8,2,18,2,18,351,2,TRUE,16,> 15,2,1,0
1,19,9,2,18,2,18,367,2,TRUE,16,> 15,2,1,0
1,19,10,2,18,2,19,360,2,TRUE,16,> 15,2,1,0
1,20,1,3,3,2,4,553,1,FALSE,0,< 5,NA,0,1
1,20,2,3,3,1,1,487,1,TRUE,0,< 5,2,0,1
1,20,3,3,3,2,3,375,1,FALSE,0,< 5,1,0,1
1,20,4,3,3,2,3,343,1,FALSE,0,< 5,2,1,0
1,20,5,3,3,2,5,350,1,FALSE,0,< 5,2,1,0
1,20,6,3,3,2,4,327,1,FALSE,0,< 5,2,1,0
1,20,7,3,3,2,2,335,1,FALSE,0,< 5,2,1,0
1,20,8,3,3,2,4,439,1,FALSE,0,< 5,2,1,0
1,20,9,3,3,2,3,375,1,FALSE,0,< 5,2,1,0
1,20,10,3,3,2,4,357,1,FALSE,0,< 5,2,1,0
2,1,1,-2,-7,1,-3,1309,1,TRUE,5,< 5,NA,0,1
2,1,2,-2,-7,2,-8,698,1,FALSE,5,< 5,1,0,1
2,1,3,-2,-7,1,-3,606,1,TRUE,5,< 5,2,0,1
2,1,4,-2,-7,2,-7,507,1,FALSE,5,< 5,1,0,1
2,1,5,-2,-7,1,-2,492,1,TRUE,5,< 5,2,0,1
2,1,6,-2,-7,1,-2,469,1,TRUE,5,< 5,1,1,0
2,1,7,-2,-7,1,-1,375,1,TRUE,5,< 5,1,1,0
2,1,8,-2,-7,1,-3,358,1,TRUE,5,< 5,1,1,0
2,1,9,-2,-7,2,-7,367,1,FALSE,5,< 5,1,0,1
2,1,10,-2,-7,1,-2,329,1,TRUE,5,< 5,2,0,1
2,2,1,8,8,2,8,901,1,FALSE,0,< 5,NA,0,1
2,2,2,8,8,1,7,520,1,TRUE,0,< 5,2,0,1
2,2,3,8,8,2,9,390,1,FALSE,0,< 5,1,0,1
2,2,4,8,8,2,8,496,1,FALSE,0,< 5,2,1,0
2,2,5,8,8,2,6,383,1,FALSE,0,< 5,2,1,0
2,2,6,8,8,2,8,369,1,FALSE,0,< 5,2,1,0
2,2,7,8,8,2,9,383,1,FALSE,0,< 5,2,1,0
2,2,8,8,8,2,7,376,1,FALSE,0,< 5,2,1,0
2,2,9,8,8,2,9,557,1,FALSE,0,< 5,2,1,0
2,2,10,8,8,2,8,366,1,FALSE,0,< 5,2,1,0
2,3,1,11,-5,2,-5,1284,1,FALSE,16,> 15,NA,0,1
2,3,2,11,-5,1,11,438,1,TRUE,16,> 15,2,0,1
2,3,3,11,-5,1,11,445,1,TRUE,16,> 15,1,1,0
2,3,4,11,-5,1,11,535,1,TRUE,16,> 15,1,1,0
2,3,5,11,-5,1,11,689,1,TRUE,16,> 15,1,1,0
2,3,6,11,-5,1,11,566,1,TRUE,16,> 15,1,1,0
2,3,7,11,-5,1,13,538,1,TRUE,16,> 15,1,1,0
2,3,8,11,-5,1,13,543,1,TRUE,16,> 15,1,1,0
2,3,9,11,-5,1,10,509,1,TRUE,16,> 15,1,1,0
2,3,10,11,-5,1,11,600,1,TRUE,16,> 15,1,1,0
2,4,1,-5,6,2,6,1517,2,TRUE,11,10 - 15,NA,0,1
2,4,2,-5,6,1,-5,539,2,FALSE,11,10 - 15,2,0,1
2,4,3,-5,6,2,8,412,2,TRUE,11,10 - 15,1,0,1
2,4,4,-5,6,2,6,514,2,TRUE,11,10 - 15,2,1,0
2,4,5,-5,6,2,6,466,2,TRUE,11,10 - 15,2,1,0
2,4,6,-5,6,2,6,448,2,TRUE,11,10 - 15,2,1,0
2,4,7,-5,6,2,7,430,2,TRUE,11,10 - 15,2,1,0
2,4,8,-5,6,2,6,454,2,TRUE,11,10 - 15,2,1,0
2,4,9,-5,6,2,5,412,2,TRUE,11,10 - 15,2,1,0
2,4,10,-5,6,2,4,412,2,TRUE,11,10 - 15,2,1,0
2,5,1,-3,16,2,15,850,2,TRUE,19,> 15,NA,0,1
2,5,2,-3,16,1,-2,505,2,FALSE,19,> 15,2,0,1
2,5,3,-3,16,2,15,349,2,TRUE,19,> 15,1,0,1
2,5,4,-3,16,2,15,399,2,TRUE,19,> 15,2,1,0
2,5,5,-3,16,2,16,342,2,TRUE,19,> 15,2,1,0
2,5,6,-3,16,2,17,335,2,TRUE,19,> 15,2,1,0
2,5,7,-3,16,2,17,484,2,TRUE,19,> 15,2,1,0
2,5,8,-3,16,2,17,595,2,TRUE,19,> 15,2,1,0
2,5,9,-3,16,2,16,818,2,TRUE,19,> 15,2,1,0
2,5,10,-3,16,2,16,1322,2,TRUE,19,> 15,2,1,0
2,6,1,-15,6,2,6,2294,2,TRUE,21,> 15,NA,0,1
2,6,2,-15,6,1,-15,504,2,FALSE,21,> 15,2,0,1
2,6,3,-15,6,2,6,343,2,TRUE,21,> 15,1,0,1
2,6,4,-15,6,2,8,313,2,TRUE,21,> 15,2,1,0
2,6,5,-15,6,2,6,340,2,TRUE,21,> 15,2,1,0
2,6,6,-15,6,2,6,404,2,TRUE,21,> 15,2,1,0
2,6,7,-15,6,2,5,353,2,TRUE,21,> 15,2,1,0
2,6,8,-15,6,2,7,350,2,TRUE,21,> 15,2,1,0
2,6,9,-15,6,2,6,377,2,TRUE,21,> 15,2,1,0
2,6,10,-15,6,2,7,349,2,TRUE,21,> 15,2,1,0
2,7,1,-1,8,2,7,625,2,TRUE,9,5 - 10,NA,0,1
2,7,2,-1,8,1,-2,715,2,FALSE,9,5 - 10,2,0,1
2,7,3,-1,8,2,8,415,2,TRUE,9,5 - 10,1,0,1
2,7,4,-1,8,2,8,336,2,TRUE,9,5 - 10,2,1,0
2,7,5,-1,8,2,9,319,2,TRUE,9,5 - 10,2,1,0
2,7,6,-1,8,2,8,304,2,TRUE,9,5 - 10,2,1,0
2,7,7,-1,8,2,7,451,2,TRUE,9,5 - 10,2,1,0
2,7,8,-1,8,2,10,341,2,TRUE,9,5 - 10,2,1,0
2,7,9,-1,8,2,8,364,2,TRUE,9,5 - 10,2,1,0
2,7,10,-1,8,2,9,404,2,TRUE,9,5 - 10,2,1,0
2,8,1,5,-14,2,-14,1108,1,FALSE,19,> 15,NA,0,1
2,8,2,5,-14,1,4,382,1,TRUE,19,> 15,2,0,1
2,8,3,5,-14,1,4,350,1,TRUE,19,> 15,1,1,0
2,8,4,5,-14,1,4,304,1,TRUE,19,> 15,1,1,0
2,8,5,5,-14,1,5,365,1,TRUE,19,> 15,1,1,0
2,8,6,5,-14,1,5,405,1,TRUE,19,> 15,1,1,0
2,8,7,5,-14,1,4,439,1,TRUE,19,> 15,1,1,0
2,8,8,5,-14,1,7,647,1,TRUE,19,> 15,1,1,0
2,8,9,5,-14,1,6,1016,1,TRUE,19,> 15,1,1,0
2,8,10,5,-14,1,5,498,1,TRUE,19,> 15,1,1,0
2,9,1,15,0,1,14,562,1,TRUE,15,10 - 15,NA,0,1
2,9,2,15,0,1,13,391,1,TRUE,15,10 - 15,1,1,0
2,9,3,15,0,1,14,488,1,TRUE,15,10 - 15,1,1,0
2,9,4,15,0,1,14,306,1,TRUE,15,10 - 15,1,1,0
2,9,5,15,0,1,15,359,1,TRUE,15,10 - 15,1,1,0
2,9,6,15,0,1,17,567,1,TRUE,15,10 - 15,1,1,0
2,9,7,15,0,1,16,491,1,TRUE,15,10 - 15,1,1,0
2,9,8,15,0,1,14,388,1,TRUE,15,10 - 15,1,1,0
2,9,9,15,0,1,16,427,1,TRUE,15,10 - 15,1,1,0
2,9,10,15,0,1,16,799,1,TRUE,15,10 - 15,1,1,0
2,10,1,12,6,2,6,1019,1,FALSE,6,5 - 10,NA,0,1
2,10,2,12,6,1,14,356,1,TRUE,6,5 - 10,2,0,1
2,10,3,12,6,1,13,356,1,TRUE,6,5 - 10,1,1,0
2,10,4,12,6,1,10,429,1,TRUE,6,5 - 10,1,1,0
2,10,5,12,6,1,12,332,1,TRUE,6,5 - 10,1,1,0
2,10,6,12,6,1,12,312,1,TRUE,6,5 - 10,1,1,0
2,10,7,12,6,1,13,338,1,TRUE,6,5 - 10,1,1,0
2,10,8,12,6,1,13,398,1,TRUE,6,5 - 10,1,1,0
2,10,9,12,6,1,11,412,1,TRUE,6,5 - 10,1,1,0
2,10,10,12,6,1,13,426,1,TRUE,6,5 - 10,1,1,0
2,11,1,6,5,1,6,624,1,TRUE,1,< 5,NA,0,1
2,11,2,6,5,2,4,351,1,FALSE,1,< 5,1,0,1
2,11,3,6,5,1,6,413,1,TRUE,1,< 5,2,0,1
2,11,4,6,5,2,5,349,1,FALSE,1,< 5,1,0,1
2,11,5,6,5,2,6,374,1,FALSE,1,< 5,2,1,0
2,11,6,6,5,2,5,335,1,FALSE,1,< 5,2,1,0
2,11,7,6,5,1,5,333,1,TRUE,1,< 5,2,0,1
2,11,8,6,5,1,7,423,1,TRUE,1,< 5,1,1,0
2,11,9,6,5,1,6,358,1,TRUE,1,< 5,1,1,0
2,11,10,6,5,1,6,350,1,TRUE,1,< 5,1,1,0
2,12,1,-7,-4,1,-7,852,2,FALSE,3,< 5,NA,0,1
2,12,2,-7,-4,2,-3,382,2,TRUE,3,< 5,1,0,1
2,12,3,-7,-4,2,-3,367,2,TRUE,3,< 5,2,1,0
2,12,4,-7,-4,1,-6,438,2,FALSE,3,< 5,2,0,1
2,12,5,-7,-4,2,-4,377,2,TRUE,3,< 5,1,0,1
2,12,6,-7,-4,2,-6,399,2,TRUE,3,< 5,2,1,0
2,12,7,-7,-4,1,-5,398,2,FALSE,3,< 5,2,0,1
2,12,8,-7,-4,2,-3,344,2,TRUE,3,< 5,1,0,1
2,12,9,-7,-4,2,-4,374,2,TRUE,3,< 5,2,1,0
2,12,10,-7,-4,2,-4,405,2,TRUE,3,< 5,2,1,0
2,13,1,12,2,2,0,586,1,FALSE,10,5 - 10,NA,0,1
2,13,2,12,2,1,13,434,1,TRUE,10,5 - 10,2,0,1
2,13,3,12,2,1,13,423,1,TRUE,10,5 - 10,1,1,0
2,13,4,12,2,1,11,382,1,TRUE,10,5 - 10,1,1,0
2,13,5,12,2,1,12,353,1,TRUE,10,5 - 10,1,1,0
2,13,6,12,2,1,12,383,1,TRUE,10,5 - 10,1,1,0
2,13,7,12,2,1,11,390,1,TRUE,10,5 - 10,1,1,0
2,13,8,12,2,1,11,517,1,TRUE,10,5 - 10,1,1,0
2,13,9,12,2,1,11,539,1,TRUE,10,5 - 10,1,1,0
2,13,10,12,2,1,14,362,1,TRUE,10,5 - 10,1,1,0
2,14,1,6,2,1,7,6542,1,TRUE,4,< 5,NA,0,1
2,14,2,6,2,2,3,358,1,FALSE,4,< 5,1,0,1
2,14,3,6,2,1,5,280,1,TRUE,4,< 5,2,0,1
2,14,4,6,2,2,3,326,1,FALSE,4,< 5,1,0,1
2,14,5,6,2,1,6,337,1,TRUE,4,< 5,2,0,1
2,14,6,6,2,1,7,361,1,TRUE,4,< 5,1,1,0
2,14,7,6,2,1,4,836,1,TRUE,4,< 5,1,1,0
2,14,8,6,2,1,4,392,1,TRUE,4,< 5,1,1,0
2,14,9,6,2,1,8,2157,1,TRUE,4,< 5,1,1,0
2,14,10,6,2,1,5,387,1,TRUE,4,< 5,1,1,0
2,15,1,6,-9,2,-10,1880,1,FALSE,15,10 - 15,NA,0,1
2,15,2,6,-9,1,5,396,1,TRUE,15,10 - 15,2,0,1
2,15,3,6,-9,1,7,319,1,TRUE,15,10 - 15,1,1,0
2,15,4,6,-9,1,6,388,1,TRUE,15,10 - 15,1,1,0
2,15,5,6,-9,1,4,326,1,TRUE,15,10 - 15,1,1,0
2,15,6,6,-9,1,7,325,1,TRUE,15,10 - 15,1,1,0
2,15,7,6,-9,1,6,367,1,TRUE,15,10 - 15,1,1,0
2,15,8,6,-9,1,6,383,1,TRUE,15,10 - 15,1,1,0
2,15,9,6,-9,1,7,366,1,TRUE,15,10 - 15,1,1,0
2,15,10,6,-9,1,6,406,1,TRUE,15,10 - 15,1,1,0
2,16,1,5,-3,1,5,704,1,TRUE,8,5 - 10,NA,0,1
2,16,2,5,-3,2,-4,364,1,FALSE,8,5 - 10,1,0,1
2,16,3,5,-3,1,7,1951,1,TRUE,8,5 - 10,2,0,1
2,16,4,5,-3,1,6,367,1,TRUE,8,5 - 10,1,1,0
2,16,5,5,-3,1,6,352,1,TRUE,8,5 - 10,1,1,0
2,16,6,5,-3,1,5,336,1,TRUE,8,5 - 10,1,1,0
2,16,7,5,-3,1,8,374,1,TRUE,8,5 - 10,1,1,0
2,16,8,5,-3,1,4,413,1,TRUE,8,5 - 10,1,1,0
2,16,9,5,-3,1,5,318,1,TRUE,8,5 - 10,1,1,0
2,16,10,5,-3,1,7,356,1,TRUE,8,5 - 10,1,1,0
2,17,1,-2,11,2,10,962,2,TRUE,13,10 - 15,NA,0,1
2,17,2,-2,11,1,-3,459,2,FALSE,13,10 - 15,2,0,1
2,17,3,-2,11,2,10,320,2,TRUE,13,10 - 15,1,0,1
2,17,4,-2,11,2,11,270,2,TRUE,13,10 - 15,2,1,0
2,17,5,-2,11,2,12,326,2,TRUE,13,10 - 15,2,1,0
2,17,6,-2,11,2,10,287,2,TRUE,13,10 - 15,2,1,0
2,17,7,-2,11,2,10,340,2,TRUE,13,10 - 15,2,1,0
2,17,8,-2,11,2,11,350,2,TRUE,13,10 - 15,2,1,0
2,17,9,-2,11,2,9,282,2,TRUE,13,10 - 15,2,1,0
2,17,10,-2,11,2,11,358,2,TRUE,13,10 - 15,2,1,0
2,18,1,-1,-9,2,-9,671,1,FALSE,8,5 - 10,NA,0,1
2,18,2,-1,-9,1,-2,374,1,TRUE,8,5 - 10,2,0,1
2,18,3,-1,-9,1,0,397,1,TRUE,8,5 - 10,1,1,0
2,18,4,-1,-9,1,-2,335,1,TRUE,8,5 - 10,1,1,0
2,18,5,-1,-9,1,-2,376,1,TRUE,8,5 - 10,1,1,0
2,18,6,-1,-9,1,0,348,1,TRUE,8,5 - 10,1,1,0
2,18,7,-1,-9,1,-1,349,1,TRUE,8,5 - 10,1,1,0
2,18,8,-1,-9,2,-8,385,1,FALSE,8,5 - 10,1,0,1
2,18,9,-1,-9,1,-1,356,1,TRUE,8,5 - 10,2,0,1
2,18,10,-1,-9,1,1,374,1,TRUE,8,5 - 10,1,1,0
2,19,1,18,-6,1,19,2858,1,TRUE,24,> 15,NA,0,1
2,19,2,18,-6,1,19,366,1,TRUE,24,> 15,1,1,0
2,19,3,18,-6,1,18,337,1,TRUE,24,> 15,1,1,0
2,19,4,18,-6,1,15,323,1,TRUE,24,> 15,1,1,0
2,19,5,18,-6,1,17,416,1,TRUE,24,> 15,1,1,0
2,19,6,18,-6,1,18,380,1,TRUE,24,> 15,1,1,0
2,19,7,18,-6,1,17,385,1,TRUE,24,> 15,1,1,0
2,19,8,18,-6,1,18,384,1,TRUE,24,> 15,1,1,0
2,19,9,18,-6,1,18,352,1,TRUE,24,> 15,1,1,0
2,19,10,18,-6,1,19,382,1,TRUE,24,> 15,1,1,0
2,20,1,15,-3,1,16,658,1,TRUE,18,> 15,NA,0,1
2,20,2,15,-3,1,15,516,1,TRUE,18,> 15,1,1,0
2,20,3,15,-3,1,15,312,1,TRUE,18,> 15,1,1,0
2,20,4,15,-3,1,15,318,1,TRUE,18,> 15,1,1,0
2,20,5,15,-3,1,15,328,1,TRUE,18,> 15,1,1,0
2,20,6,15,-3,1,15,329,1,TRUE,18,> 15,1,1,0
2,20,7,15,-3,1,14,327,1,TRUE,18,> 15,1,1,0
2,20,8,15,-3,1,17,343,1,TRUE,18,> 15,1,1,0
2,20,9,15,-3,1,16,351,1,TRUE,18,> 15,1,1,0
2,20,10,15,-3,1,15,337,1,TRUE,18,> 15,1,1,0
3,1,1,10,9,1,9,1559,1,TRUE,1,< 5,NA,0,1
3,1,2,10,9,2,10,816,1,FALSE,1,< 5,1,0,1
3,1,3,10,9,2,9,861,1,FALSE,1,< 5,2,1,0
3,1,4,10,9,1,9,578,1,TRUE,1,< 5,2,0,1
3,1,5,10,9,2,10,473,1,FALSE,1,< 5,1,0,1
3,1,6,10,9,2,9,444,1,FALSE,1,< 5,2,1,0
3,1,7,10,9,1,8,438,1,TRUE,1,< 5,2,0,1
3,1,8,10,9,2,10,357,1,FALSE,1,< 5,1,0,1
3,1,9,10,9,1,9,383,1,TRUE,1,< 5,2,0,1
3,1,10,10,9,2,10,387,1,FALSE,1,< 5,1,0,1
3,2,1,-4,6,1,-5,861,2,FALSE,10,5 - 10,NA,0,1
3,2,2,-4,6,2,4,372,2,TRUE,10,5 - 10,1,0,1
3,2,3,-4,6,1,-5,516,2,FALSE,10,5 - 10,2,0,1
3,2,4,-4,6,2,8,323,2,TRUE,10,5 - 10,1,0,1
3,2,5,-4,6,2,5,336,2,TRUE,10,5 - 10,2,1,0
3,2,6,-4,6,1,-6,333,2,FALSE,10,5 - 10,2,0,1
3,2,7,-4,6,2,8,313,2,TRUE,10,5 - 10,1,0,1
3,2,8,-4,6,2,4,333,2,TRUE,10,5 - 10,2,1,0
3,2,9,-4,6,2,6,341,2,TRUE,10,5 - 10,2,1,0
3,2,10,-4,6,2,5,316,2,TRUE,10,5 - 10,2,1,0
3,3,1,4,-1,2,-2,468,1,FALSE,5,< 5,NA,0,1
3,3,2,4,-1,1,4,343,1,TRUE,5,< 5,2,0,1
3,3,3,4,-1,1,5,259,1,TRUE,5,< 5,1,1,0
3,3,4,4,-1,1,3,292,1,TRUE,5,< 5,1,1,0
3,3,5,4,-1,1,3,322,1,TRUE,5,< 5,1,1,0
3,3,6,4,-1,1,3,318,1,TRUE,5,< 5,1,1,0
3,3,7,4,-1,1,5,336,1,TRUE,5,< 5,1,1,0
3,3,8,4,-1,1,4,363,1,TRUE,5,< 5,1,1,0
3,3,9,4,-1,1,5,415,1,TRUE,5,< 5,1,1,0
3,3,10,4,-1,1,4,355,1,TRUE,5,< 5,1,1,0
3,4,1,-13,8,1,-13,422,2,FALSE,21,> 15,NA,0,1
3,4,2,-13,8,2,8,384,2,TRUE,21,> 15,1,0,1
3,4,3,-13,8,2,8,464,2,TRUE,21,> 15,2,1,0
3,4,4,-13,8,2,8,254,2,TRUE,21,> 15,2,1,0
3,4,5,-13,8,2,7,209,2,TRUE,21,> 15,2,1,0
3,4,6,-13,8,2,8,229,2,TRUE,21,> 15,2,1,0
3,4,7,-13,8,2,9,226,2,TRUE,21,> 15,2,1,0
3,4,8,-13,8,2,7,283,2,TRUE,21,> 15,2,1,0
3,4,9,-13,8,2,6,235,2,TRUE,21,> 15,2,1,0
3,4,10,-13,8,2,9,418,2,TRUE,21,> 15,2,1,0
3,5,1,-2,6,1,-2,370,2,FALSE,8,5 - 10,NA,0,1
3,5,2,-2,6,2,4,258,2,TRUE,8,5 - 10,1,0,1
3,5,3,-2,6,2,7,233,2,TRUE,8,5 - 10,2,1,0
3,5,4,-2,6,2,6,241,2,TRUE,8,5 - 10,2,1,0
3,5,5,-2,6,2,7,239,2,TRUE,8,5 - 10,2,1,0
3,5,6,-2,6,2,7,277,2,TRUE,8,5 - 10,2,1,0
3,5,7,-2,6,2,7,379,2,TRUE,8,5 - 10,2,1,0
3,5,8,-2,6,2,6,294,2,TRUE,8,5 - 10,2,1,0
3,5,9,-2,6,2,6,257,2,TRUE,8,5 - 10,2,1,0
3,5,10,-2,6,2,5,316,2,TRUE,8,5 - 10,2,1,0
3,6,1,-2,-2,2,-1,351,1,FALSE,0,< 5,NA,0,1
3,6,2,-2,-2,1,-2,265,1,TRUE,0,< 5,2,0,1
3,6,3,-2,-2,2,-3,260,1,FALSE,0,< 5,1,0,1
3,6,4,-2,-2,1,0,388,1,TRUE,0,< 5,2,0,1
3,6,5,-2,-2,1,-2,283,1,TRUE,0,< 5,1,1,0
3,6,6,-2,-2,2,-5,316,1,FALSE,0,< 5,1,0,1
3,6,7,-2,-2,1,-4,297,1,TRUE,0,< 5,2,0,1
3,6,8,-2,-2,2,-3,319,1,FALSE,0,< 5,1,0,1
3,6,9,-2,-2,1,-1,321,1,TRUE,0,< 5,2,0,1
3,6,10,-2,-2,2,-1,358,1,FALSE,0,< 5,1,0,1
3,7,1,1,8,1,0,351,2,FALSE,7,5 - 10,NA,0,1
3,7,2,1,8,2,9,263,2,TRUE,7,5 - 10,1,0,1
3,7,3,1,8,2,8,312,2,TRUE,7,5 - 10,2,1,0
3,7,4,1,8,2,7,334,2,TRUE,7,5 - 10,2,1,0
3,7,5,1,8,2,8,250,2,TRUE,7,5 - 10,2,1,0
3,7,6,1,8,2,9,255,2,TRUE,7,5 - 10,2,1,0
3,7,7,1,8,2,6,277,2,TRUE,7,5 - 10,2,1,0
3,7,8,1,8,2,9,226,2,TRUE,7,5 - 10,2,1,0
3,7,9,1,8,2,9,244,2,TRUE,7,5 - 10,2,1,0
3,7,10,1,8,2,7,277,2,TRUE,7,5 - 10,2,1,0
3,8,1,-2,-7,2,-6,556,1,FALSE,5,< 5,NA,0,1
3,8,2,-2,-7,1,-2,287,1,TRUE,5,< 5,2,0,1
3,8,3,-2,-7,1,-4,299,1,TRUE,5,< 5,1,1,0
3,8,4,-2,-7,2,-6,290,1,FALSE,5,< 5,1,0,1
3,8,5,-2,-7,1,-1,285,1,TRUE,5,< 5,2,0,1
3,8,6,-2,-7,2,-6,291,1,FALSE,5,< 5,1,0,1
3,8,7,-2,-7,1,-3,274,1,TRUE,5,< 5,2,0,1
3,8,8,-2,-7,1,-2,269,1,TRUE,5,< 5,1,1,0
3,8,9,-2,-7,1,-3,235,1,TRUE,5,< 5,1,1,0
3,8,10,-2,-7,1,-2,275,1,TRUE,5,< 5,1,1,0
3,9,1,-6,2,2,3,589,2,TRUE,8,5 - 10,NA,0,1
3,9,2,-6,2,1,-6,300,2,FALSE,8,5 - 10,2,0,1
3,9,3,-6,2,2,3,266,2,TRUE,8,5 - 10,1,0,1
3,9,4,-6,2,2,1,225,2,TRUE,8,5 - 10,2,1,0
3,9,5,-6,2,2,2,223,2,TRUE,8,5 - 10,2,1,0
3,9,6,-6,2,2,2,226,2,TRUE,8,5 - 10,2,1,0
3,9,7,-6,2,2,3,230,2,TRUE,8,5 - 10,2,1,0
3,9,8,-6,2,2,4,218,2,TRUE,8,5 - 10,2,1,0
3,9,9,-6,2,2,3,266,2,TRUE,8,5 - 10,2,1,0
3,9,10,-6,2,2,3,266,2,TRUE,8,5 - 10,2,1,0
3,10,1,6,-1,1,7,408,1,TRUE,7,5 - 10,NA,0,1
3,10,2,6,-1,2,0,263,1,FALSE,7,5 - 10,1,0,1
3,10,3,6,-1,1,7,285,1,TRUE,7,5 - 10,2,0,1
3,10,4,6,-1,1,6,222,1,TRUE,7,5 - 10,1,1,0
3,10,5,6,-1,1,6,250,1,TRUE,7,5 - 10,1,1,0
3,10,6,6,-1,1,7,318,1,TRUE,7,5 - 10,1,1,0
3,10,7,6,-1,1,5,299,1,TRUE,7,5 - 10,1,1,0
3,10,8,6,-1,1,8,251,1,TRUE,7,5 - 10,1,1,0
3,10,9,6,-1,1,5,262,1,TRUE,7,5 - 10,1,1,0
3,10,10,6,-1,1,5,292,1,TRUE,7,5 - 10,1,1,0
3,11,1,-4,5,2,6,398,2,TRUE,9,5 - 10,NA,0,1
3,11,2,-4,5,1,-4,282,2,FALSE,9,5 - 10,2,0,1
3,11,3,-4,5,2,5,290,2,TRUE,9,5 - 10,1,0,1
3,11,4,-4,5,2,4,207,2,TRUE,9,5 - 10,2,1,0
3,11,5,-4,5,2,5,223,2,TRUE,9,5 - 10,2,1,0
3,11,6,-4,5,2,5,224,2,TRUE,9,5 - 10,2,1,0
3,11,7,-4,5,2,6,204,2,TRUE,9,5 - 10,2,1,0
3,11,8,-4,5,2,5,272,2,TRUE,9,5 - 10,2,1,0
3,11,9,-4,5,2,7,209,2,TRUE,9,5 - 10,2,1,0
3,11,10,-4,5,2,5,240,2,TRUE,9,5 - 10,2,1,0
3,12,1,2,-10,2,-8,387,1,FALSE,12,10 - 15,NA,0,1
3,12,2,2,-10,1,2,266,1,TRUE,12,10 - 15,2,0,1
3,12,3,2,-10,1,1,245,1,TRUE,12,10 - 15,1,1,0
3,12,4,2,-10,1,2,251,1,TRUE,12,10 - 15,1,1,0
3,12,5,2,-10,1,1,262,1,TRUE,12,10 - 15,1,1,0
3,12,6,2,-10,1,4,228,1,TRUE,12,10 - 15,1,1,0
3,12,7,2,-10,1,2,274,1,TRUE,12,10 - 15,1,1,0
3,12,8,2,-10,1,-1,288,1,TRUE,12,10 - 15,1,1,0
3,12,9,2,-10,1,4,300,1,TRUE,12,10 - 15,1,1,0
3,12,10,2,-10,1,1,568,1,TRUE,12,10 - 15,1,1,0
3,13,1,0,7,1,-1,463,2,FALSE,7,5 - 10,NA,0,1
3,13,2,0,7,2,7,261,2,TRUE,7,5 - 10,1,0,1
3,13,3,0,7,2,9,250,2,TRUE,7,5 - 10,2,1,0
3,13,4,0,7,2,8,223,2,TRUE,7,5 - 10,2,1,0
3,13,5,0,7,2,7,226,2,TRUE,7,5 - 10,2,1,0
3,13,6,0,7,2,6,229,2,TRUE,7,5 - 10,2,1,0
3,13,7,0,7,2,7,271,2,TRUE,7,5 - 10,2,1,0
3,13,8,0,7,2,7,284,2,TRUE,7,5 - 10,2,1,0
3,13,9,0,7,2,6,247,2,TRUE,7,5 - 10,2,1,0
3,13,10,0,7,2,8,250,2,TRUE,7,5 - 10,2,1,0
3,14,1,3,0,2,1,507,1,FALSE,3,< 5,NA,0,1
3,14,2,3,0,1,3,279,1,TRUE,3,< 5,2,0,1
3,14,3,3,0,1,4,243,1,TRUE,3,< 5,1,1,0
3,14,4,3,0,1,3,201,1,TRUE,3,< 5,1,1,0
3,14,5,3,0,1,4,268,1,TRUE,3,< 5,1,1,0
3,14,6,3,0,1,3,237,1,TRUE,3,< 5,1,1,0
3,14,7,3,0,1,3,236,1,TRUE,3,< 5,1,1,0
3,14,8,3,0,1,3,242,1,TRUE,3,< 5,1,1,0
3,14,9,3,0,1,4,251,1,TRUE,3,< 5,1,1,0
3,14,10,3,0,1,4,248,1,TRUE,3,< 5,1,1,0
3,15,1,5,3,2,3,365,1,FALSE,2,< 5,NA,0,1
3,15,2,5,3,1,6,253,1,TRUE,2,< 5,2,0,1
3,15,3,5,3,1,6,306,1,TRUE,2,< 5,1,1,0
3,15,4,5,3,1,6,248,1,TRUE,2,< 5,1,1,0
3,15,5,5,3,1,4,225,1,TRUE,2,< 5,1,1,0
3,15,6,5,3,1,4,258,1,TRUE,2,< 5,1,1,0
3,15,7,5,3,1,6,237,1,TRUE,2,< 5,1,1,0
3,15,8,5,3,1,5,266,1,TRUE,2,< 5,1,1,0
3,15,9,5,3,1,7,273,1,TRUE,2,< 5,1,1,0
3,15,10,5,3,1,4,360,1,TRUE,2,< 5,1,1,0
3,16,1,4,4,2,5,615,1,FALSE,0,< 5,NA,0,1
3,16,2,4,4,1,3,237,1,TRUE,0,< 5,2,0,1
3,16,3,4,4,2,5,281,1,FALSE,0,< 5,1,0,1
3,16,4,4,4,2,3,203,1,FALSE,0,< 5,2,1,0
3,16,5,4,4,2,4,239,1,FALSE,0,< 5,2,1,0
3,16,6,4,4,2,5,216,1,FALSE,0,< 5,2,1,0
3,16,7,4,4,2,3,246,1,FALSE,0,< 5,2,1,0
3,16,8,4,4,2,3,266,1,FALSE,0,< 5,2,1,0
3,16,9,4,4,2,4,245,1,FALSE,0,< 5,2,1,0
3,16,10,4,4,2,5,275,1,FALSE,0,< 5,2,1,0
3,17,1,6,-3,2,-4,417,1,FALSE,9,5 - 10,NA,0,1
3,17,2,6,-3,1,5,255,1,TRUE,9,5 - 10,2,0,1
3,17,3,6,-3,1,6,264,1,TRUE,9,5 - 10,1,1,0
3,17,4,6,-3,1,6,245,1,TRUE,9,5 - 10,1,1,0
3,17,5,6,-3,1,7,255,1,TRUE,9,5 - 10,1,1,0
3,17,6,6,-3,1,5,275,1,TRUE,9,5 - 10,1,1,0
3,17,7,6,-3,1,5,264,1,TRUE,9,5 - 10,1,1,0
3,17,8,6,-3,1,7,287,1,TRUE,9,5 - 10,1,1,0
3,17,9,6,-3,1,5,261,1,TRUE,9,5 - 10,1,1,0
3,17,10,6,-3,1,5,241,1,TRUE,9,5 - 10,1,1,0
3,18,1,-8,-3,1,-9,384,2,FALSE,5,< 5,NA,0,1
3,18,2,-8,-3,2,0,233,2,TRUE,5,< 5,1,0,1
3,18,3,-8,-3,2,-2,225,2,TRUE,5,< 5,2,1,0
3,18,4,-8,-3,2,-4,214,2,TRUE,5,< 5,2,1,0
3,18,5,-8,-3,2,-4,190,2,TRUE,5,< 5,2,1,0
3,18,6,-8,-3,1,-8,256,2,FALSE,5,< 5,2,0,1
3,18,7,-8,-3,2,-5,234,2,TRUE,5,< 5,1,0,1
3,18,8,-8,-3,2,-5,209,2,TRUE,5,< 5,2,1,0
3,18,9,-8,-3,2,-3,220,2,TRUE,5,< 5,2,1,0
3,18,10,-8,-3,2,-5,244,2,TRUE,5,< 5,2,1,0
3,19,1,4,-4,2,-3,573,1,FALSE,8,5 - 10,NA,0,1
3,19,2,4,-4,1,4,231,1,TRUE,8,5 - 10,2,0,1
3,19,3,4,-4,1,5,238,1,TRUE,8,5 - 10,1,1,0
3,19,4,4,-4,1,4,255,1,TRUE,8,5 - 10,1,1,0
3,19,5,4,-4,1,6,267,1,TRUE,8,5 - 10,1,1,0
3,19,6,4,-4,1,4,235,1,TRUE,8,5 - 10,1,1,0
3,19,7,4,-4,1,2,226,1,TRUE,8,5 - 10,1,1,0
3,19,8,4,-4,1,3,261,1,TRUE,8,5 - 10,1,1,0
3,19,9,4,-4,1,3,256,1,TRUE,8,5 - 10,1,1,0
3,19,10,4,-4,1,5,260,1,TRUE,8,5 - 10,1,1,0
3,20,1,5,-6,2,-6,380,1,FALSE,11,10 - 15,NA,0,1
3,20,2,5,-6,1,5,254,1,TRUE,11,10 - 15,2,0,1
3,20,3,5,-6,1,4,230,1,TRUE,11,10 - 15,1,1,0
3,20,4,5,-6,1,4,224,1,TRUE,11,10 - 15,1,1,0
3,20,5,5,-6,1,5,244,1,TRUE,11,10 - 15,1,1,0
3,20,6,5,-6,1,4,233,1,TRUE,11,10 - 15,1,1,0
3,20,7,5,-6,1,6,254,1,TRUE,11,10 - 15,1,1,0
3,20,8,5,-6,1,5,245,1,TRUE,11,10 - 15,1,1,0
3,20,9,5,-6,1,7,252,1,TRUE,11,10 - 15,1,1,0
3,20,10,5,-6,1,4,237,1,TRUE,11,10 - 15,1,1,0
4,1,1,3,4,1,4,1135,2,FALSE,1,< 5,NA,0,1
4,1,2,3,4,1,2,742,2,FALSE,1,< 5,1,1,0
4,1,3,3,4,2,4,609,2,TRUE,1,< 5,1,0,1
4,1,4,3,4,2,3,412,2,TRUE,1,< 5,2,1,0
4,1,5,3,4,2,3,541,2,TRUE,1,< 5,2,1,0
4,1,6,3,4,2,5,431,2,TRUE,1,< 5,2,1,0
4,1,7,3,4,2,3,482,2,TRUE,1,< 5,2,1,0
4,1,8,3,4,1,3,393,2,FALSE,1,< 5,2,0,1
4,1,9,3,4,2,4,391,2,TRUE,1,< 5,1,0,1
4,1,10,3,4,2,3,391,2,TRUE,1,< 5,2,1,0
4,2,1,-2,-1,1,-2,611,2,FALSE,1,< 5,NA,0,1
4,2,2,-2,-1,2,-1,350,2,TRUE,1,< 5,1,0,1
4,2,3,-2,-1,2,-2,544,2,TRUE,1,< 5,2,1,0
4,2,4,-2,-1,2,0,403,2,TRUE,1,< 5,2,1,0
4,2,5,-2,-1,2,-1,550,2,TRUE,1,< 5,2,1,0
4,2,6,-2,-1,1,-3,1066,2,FALSE,1,< 5,2,0,1
4,2,7,-2,-1,1,-1,367,2,FALSE,1,< 5,1,1,0
4,2,8,-2,-1,1,-1,485,2,FALSE,1,< 5,1,1,0
4,2,9,-2,-1,1,-1,520,2,FALSE,1,< 5,1,1,0
4,2,10,-2,-1,2,-1,760,2,TRUE,1,< 5,1,0,1
4,3,1,7,8,1,8,1119,2,FALSE,1,< 5,NA,0,1
4,3,2,7,8,1,5,377,2,FALSE,1,< 5,1,1,0
4,3,3,7,8,1,8,478,2,FALSE,1,< 5,1,1,0
4,3,4,7,8,1,8,446,2,FALSE,1,< 5,1,1,0
4,3,5,7,8,1,6,470,2,FALSE,1,< 5,1,1,0
4,3,6,7,8,2,8,607,2,TRUE,1,< 5,1,0,1
4,3,7,7,8,2,8,697,2,TRUE,1,< 5,2,1,0
4,3,8,7,8,2,8,447,2,TRUE,1,< 5,2,1,0
4,3,9,7,8,2,7,415,2,TRUE,1,< 5,2,1,0
4,3,10,7,8,2,8,399,2,TRUE,1,< 5,2,1,0
4,4,1,-6,5,2,4,479,2,TRUE,11,10 - 15,NA,0,1
4,4,2,-6,5,1,-6,407,2,FALSE,11,10 - 15,2,0,1
4,4,3,-6,5,2,7,489,2,TRUE,11,10 - 15,1,0,1
4,4,4,-6,5,2,5,435,2,TRUE,11,10 - 15,2,1,0
4,4,5,-6,5,2,5,788,2,TRUE,11,10 - 15,2,1,0
4,4,6,-6,5,2,4,385,2,TRUE,11,10 - 15,2,1,0
4,4,7,-6,5,2,4,535,2,TRUE,11,10 - 15,2,1,0
4,4,8,-6,5,2,4,444,2,TRUE,11,10 - 15,2,1,0
4,4,9,-6,5,2,6,412,2,TRUE,11,10 - 15,2,1,0
4,4,10,-6,5,2,5,423,2,TRUE,11,10 - 15,2,1,0
4,5,1,-5,-4,1,-4,1313,2,FALSE,1,< 5,NA,0,1
4,5,2,-5,-4,2,-4,356,2,TRUE,1,< 5,1,0,1
4,5,3,-5,-4,1,-5,650,2,FALSE,1,< 5,2,0,1
4,5,4,-5,-4,2,-4,1082,2,TRUE,1,< 5,1,0,1
4,5,5,-5,-4,2,-2,523,2,TRUE,1,< 5,2,1,0
4,5,6,-5,-4,2,-4,389,2,TRUE,1,< 5,2,1,0
4,5,7,-5,-4,2,-4,1051,2,TRUE,1,< 5,2,1,0
4,5,8,-5,-4,2,-6,352,2,TRUE,1,< 5,2,1,0
4,5,9,-5,-4,2,-4,612,2,TRUE,1,< 5,2,1,0
4,5,10,-5,-4,2,-4,348,2,TRUE,1,< 5,2,1,0
4,6,1,-9,15,1,-9,913,2,FALSE,24,> 15,NA,0,1
4,6,2,-9,15,2,14,379,2,TRUE,24,> 15,1,0,1
4,6,3,-9,15,2,16,384,2,TRUE,24,> 15,2,1,0
4,6,4,-9,15,2,16,391,2,TRUE,24,> 15,2,1,0
4,6,5,-9,15,2,14,420,2,TRUE,24,> 15,2,1,0
4,6,6,-9,15,2,15,545,2,TRUE,24,> 15,2,1,0
4,6,7,-9,15,2,14,376,2,TRUE,24,> 15,2,1,0
4,6,8,-9,15,2,14,349,2,TRUE,24,> 15,2,1,0
4,6,9,-9,15,2,16,389,2,TRUE,24,> 15,2,1,0
4,6,10,-9,15,2,16,387,2,TRUE,24,> 15,2,1,0
4,7,1,6,16,2,14,600,2,TRUE,10,5 - 10,NA,0,1
4,7,2,6,16,2,15,354,2,TRUE,10,5 - 10,2,1,0
4,7,3,6,16,2,16,355,2,TRUE,10,5 - 10,2,1,0
4,7,4,6,16,2,16,380,2,TRUE,10,5 - 10,2,1,0
4,7,5,6,16,2,17,367,2,TRUE,10,5 - 10,2,1,0
4,7,6,6,16,2,16,490,2,TRUE,10,5 - 10,2,1,0
4,7,7,6,16,2,16,384,2,TRUE,10,5 - 10,2,1,0
4,7,8,6,16,2,15,391,2,TRUE,10,5 - 10,2,1,0
4,7,9,6,16,2,18,370,2,TRUE,10,5 - 10,2,1,0
4,7,10,6,16,2,15,374,2,TRUE,10,5 - 10,2,1,0
4,8,1,-3,-4,1,-4,367,1,TRUE,1,< 5,NA,0,1
4,8,2,-3,-4,2,-3,542,1,FALSE,1,< 5,1,0,1
4,8,3,-3,-4,2,-4,529,1,FALSE,1,< 5,2,1,0
4,8,4,-3,-4,2,-2,474,1,FALSE,1,< 5,2,1,0
4,8,5,-3,-4,2,-4,393,1,FALSE,1,< 5,2,1,0
4,8,6,-3,-4,1,-2,519,1,TRUE,1,< 5,2,0,1
4,8,7,-3,-4,1,-3,998,1,TRUE,1,< 5,1,1,0
4,8,8,-3,-4,1,-4,411,1,TRUE,1,< 5,1,1,0
4,8,9,-3,-4,2,-3,387,1,FALSE,1,< 5,1,0,1
4,8,10,-3,-4,2,-5,435,1,FALSE,1,< 5,2,1,0
4,9,1,9,-5,1,9,1241,1,TRUE,14,10 - 15,NA,0,1
4,9,2,9,-5,1,8,1121,1,TRUE,14,10 - 15,1,1,0
4,9,3,9,-5,1,10,332,1,TRUE,14,10 - 15,1,1,0
4,9,4,9,-5,1,8,404,1,TRUE,14,10 - 15,1,1,0
4,9,5,9,-5,1,9,387,1,TRUE,14,10 - 15,1,1,0
4,9,6,9,-5,1,10,366,1,TRUE,14,10 - 15,1,1,0
4,9,7,9,-5,1,9,479,1,TRUE,14,10 - 15,1,1,0
4,9,8,9,-5,1,7,307,1,TRUE,14,10 - 15,1,1,0
4,9,9,9,-5,1,10,355,1,TRUE,14,10 - 15,1,1,0
4,9,10,9,-5,1,9,337,1,TRUE,14,10 - 15,1,1,0
4,10,1,9,-4,2,-3,612,1,FALSE,13,10 - 15,NA,0,1
4,10,2,9,-4,1,8,371,1,TRUE,13,10 - 15,2,0,1
4,10,3,9,-4,1,10,1073,1,TRUE,13,10 - 15,1,1,0
4,10,4,9,-4,1,9,674,1,TRUE,13,10 - 15,1,1,0
4,10,5,9,-4,1,9,462,1,TRUE,13,10 - 15,1,1,0
4,10,6,9,-4,1,10,485,1,TRUE,13,10 - 15,1,1,0
4,10,7,9,-4,1,8,550,1,TRUE,13,10 - 15,1,1,0
4,10,8,9,-4,1,10,372,1,TRUE,13,10 - 15,1,1,0
4,10,9,9,-4,1,9,382,1,TRUE,13,10 - 15,1,1,0
4,10,10,9,-4,1,10,619,1,TRUE,13,10 - 15,1,1,0
4,11,1,2,6,1,2,486,2,FALSE,4,< 5,NA,0,1
4,11,2,2,6,2,4,353,2,TRUE,4,< 5,1,0,1
4,11,3,2,6,2,7,343,2,TRUE,4,< 5,2,1,0
4,11,4,2,6,2,6,414,2,TRUE,4,< 5,2,1,0
4,11,5,2,6,2,6,360,2,TRUE,4,< 5,2,1,0
4,11,6,2,6,2,5,400,2,TRUE,4,< 5,2,1,0
4,11,7,2,6,2,6,451,2,TRUE,4,< 5,2,1,0
4,11,8,2,6,2,7,412,2,TRUE,4,< 5,2,1,0
4,11,9,2,6,2,6,388,2,TRUE,4,< 5,2,1,0
4,11,10,2,6,2,5,397,2,TRUE,4,< 5,2,1,0
4,12,1,13,-8,1,12,484,1,TRUE,21,> 15,NA,0,1
4,12,2,13,-8,1,12,327,1,TRUE,21,> 15,1,1,0
4,12,3,13,-8,1,13,1013,1,TRUE,21,> 15,1,1,0
4,12,4,13,-8,1,14,296,1,TRUE,21,> 15,1,1,0
4,12,5,13,-8,1,14,883,1,TRUE,21,> 15,1,1,0
4,12,6,13,-8,1,13,596,1,TRUE,21,> 15,1,1,0
4,12,7,13,-8,1,13,443,1,TRUE,21,> 15,1,1,0
4,12,8,13,-8,1,13,437,1,TRUE,21,> 15,1,1,0
4,12,9,13,-8,1,12,824,1,TRUE,21,> 15,1,1,0
4,12,10,13,-8,1,13,364,1,TRUE,21,> 15,1,1,0
4,13,1,-4,2,1,-6,565,2,FALSE,6,5 - 10,NA,0,1
4,13,2,-4,2,2,2,15,2,TRUE,6,5 - 10,1,0,1
4,13,3,-4,2,2,2,289,2,TRUE,6,5 - 10,2,1,0
4,13,4,-4,2,2,0,349,2,TRUE,6,5 - 10,2,1,0
4,13,5,-4,2,2,2,378,2,TRUE,6,5 - 10,2,1,0
4,13,6,-4,2,1,-4,15,2,FALSE,6,5 - 10,2,0,1
4,13,7,-4,2,2,3,432,2,TRUE,6,5 - 10,1,0,1
4,13,8,-4,2,2,1,761,2,TRUE,6,5 - 10,2,1,0
4,13,9,-4,2,2,0,390,2,TRUE,6,5 - 10,2,1,0
4,13,10,-4,2,2,2,356,2,TRUE,6,5 - 10,2,1,0
4,14,1,-1,17,2,18,579,2,TRUE,18,> 15,NA,0,1
4,14,2,-1,17,2,16,304,2,TRUE,18,> 15,2,1,0
4,14,3,-1,17,2,17,395,2,TRUE,18,> 15,2,1,0
4,14,4,-1,17,2,17,495,2,TRUE,18,> 15,2,1,0
4,14,5,-1,17,2,17,387,2,TRUE,18,> 15,2,1,0
4,14,6,-1,17,2,17,1382,2,TRUE,18,> 15,2,1,0
4,14,7,-1,17,2,16,623,2,TRUE,18,> 15,2,1,0
4,14,8,-1,17,2,19,343,2,TRUE,18,> 15,2,1,0
4,14,9,-1,17,2,19,356,2,TRUE,18,> 15,2,1,0
4,14,10,-1,17,2,18,9,2,TRUE,18,> 15,2,1,0
4,15,1,0,-4,2,-3,521,1,FALSE,4,< 5,NA,0,1
4,15,2,0,-4,1,-2,333,1,TRUE,4,< 5,2,0,1
4,15,3,0,-4,1,-1,856,1,TRUE,4,< 5,1,1,0
4,15,4,0,-4,1,-1,347,1,TRUE,4,< 5,1,1,0
4,15,5,0,-4,1,0,325,1,TRUE,4,< 5,1,1,0
4,15,6,0,-4,1,-1,334,1,TRUE,4,< 5,1,1,0
4,15,7,0,-4,1,0,1055,1,TRUE,4,< 5,1,1,0
4,15,8,0,-4,1,1,330,1,TRUE,4,< 5,1,1,0
4,15,9,0,-4,1,-1,350,1,TRUE,4,< 5,1,1,0
4,15,10,0,-4,2,-5,375,1,FALSE,4,< 5,1,0,1
4,16,1,24,10,1,23,667,1,TRUE,14,10 - 15,NA,0,1
4,16,2,24,10,1,25,346,1,TRUE,14,10 - 15,1,1,0
4,16,3,24,10,1,24,355,1,TRUE,14,10 - 15,1,1,0
4,16,4,24,10,1,23,1130,1,TRUE,14,10 - 15,1,1,0
4,16,5,24,10,1,24,311,1,TRUE,14,10 - 15,1,1,0
4,16,6,24,10,1,25,369,1,TRUE,14,10 - 15,1,1,0
4,16,7,24,10,1,24,376,1,TRUE,14,10 - 15,1,1,0
4,16,8,24,10,1,23,374,1,TRUE,14,10 - 15,1,1,0
4,16,9,24,10,1,23,404,1,TRUE,14,10 - 15,1,1,0
4,16,10,24,10,1,23,359,1,TRUE,14,10 - 15,1,1,0
4,17,1,2,19,1,3,523,2,FALSE,17,> 15,NA,0,1
4,17,2,2,19,2,20,351,2,TRUE,17,> 15,1,0,1
4,17,3,2,19,2,21,719,2,TRUE,17,> 15,2,1,0
4,17,4,2,19,2,19,364,2,TRUE,17,> 15,2,1,0
4,17,5,2,19,2,17,1057,2,TRUE,17,> 15,2,1,0
4,17,6,2,19,2,20,359,2,TRUE,17,> 15,2,1,0
4,17,7,2,19,2,21,360,2,TRUE,17,> 15,2,1,0
4,17,8,2,19,2,19,364,2,TRUE,17,> 15,2,1,0
4,17,9,2,19,2,19,407,2,TRUE,17,> 15,2,1,0
4,17,10,2,19,2,20,386,2,TRUE,17,> 15,2,1,0
4,18,1,-6,-16,2,-15,839,1,FALSE,10,5 - 10,NA,0,1
4,18,2,-6,-16,1,-6,352,1,TRUE,10,5 - 10,2,0,1
4,18,3,-6,-16,1,-6,369,1,TRUE,10,5 - 10,1,1,0
4,18,4,-6,-16,1,-5,328,1,TRUE,10,5 - 10,1,1,0
4,18,5,-6,-16,1,-6,1065,1,TRUE,10,5 - 10,1,1,0
4,18,6,-6,-16,1,-7,319,1,TRUE,10,5 - 10,1,1,0
4,18,7,-6,-16,1,-6,335,1,TRUE,10,5 - 10,1,1,0
4,18,8,-6,-16,1,-6,361,1,TRUE,10,5 - 10,1,1,0
4,18,9,-6,-16,1,-6,596,1,TRUE,10,5 - 10,1,1,0
4,18,10,-6,-16,1,-7,406,1,TRUE,10,5 - 10,1,1,0
4,19,1,6,-16,1,5,692,1,TRUE,22,> 15,NA,0,1
4,19,2,6,-16,2,-18,1247,1,FALSE,22,> 15,1,0,1
4,19,3,6,-16,1,5,2499,1,TRUE,22,> 15,2,0,1
4,19,4,6,-16,1,7,589,1,TRUE,22,> 15,1,1,0
4,19,5,6,-16,1,7,416,1,TRUE,22,> 15,1,1,0
4,19,6,6,-16,1,6,353,1,TRUE,22,> 15,1,1,0
4,19,7,6,-16,1,7,350,1,TRUE,22,> 15,1,1,0
4,19,8,6,-16,1,6,362,1,TRUE,22,> 15,1,1,0
4,19,9,6,-16,1,6,350,1,TRUE,22,> 15,1,1,0
4,19,10,6,-16,1,5,336,1,TRUE,22,> 15,1,1,0
4,20,1,21,-3,1,22,552,1,TRUE,24,> 15,NA,0,1
4,20,2,21,-3,1,21,868,1,TRUE,24,> 15,1,1,0
4,20,3,21,-3,1,23,375,1,TRUE,24,> 15,1,1,0
4,20,4,21,-3,1,21,848,1,TRUE,24,> 15,1,1,0
4,20,5,21,-3,1,19,420,1,TRUE,24,> 15,1,1,0
4,20,6,21,-3,1,22,375,1,TRUE,24,> 15,1,1,0
4,20,7,21,-3,1,21,387,1,TRUE,24,> 15,1,1,0
4,20,8,21,-3,1,19,388,1,TRUE,24,> 15,1,1,0
4,20,9,21,-3,1,21,336,1,TRUE,24,> 15,1,1,0
4,20,10,21,-3,1,21,346,1,TRUE,24,> 15,1,1,0
5,1,1,12,2,1,12,2600,1,TRUE,10,5 - 10,NA,0,1
5,1,2,12,2,1,11,601,1,TRUE,10,5 - 10,1,1,0
5,1,3,12,2,1,13,509,1,TRUE,10,5 - 10,1,1,0
5,1,4,12,2,1,12,562,1,TRUE,10,5 - 10,1,1,0
5,1,5,12,2,1,12,605,1,TRUE,10,5 - 10,1,1,0
5,1,6,12,2,1,12,648,1,TRUE,10,5 - 10,1,1,0
5,1,7,12,2,1,11,510,1,TRUE,10,5 - 10,1,1,0
5,1,8,12,2,2,2,480,1,FALSE,10,5 - 10,1,0,1
5,1,9,12,2,1,13,439,1,TRUE,10,5 - 10,2,0,1
5,1,10,12,2,1,13,549,1,TRUE,10,5 - 10,1,1,0
5,2,1,4,14,2,14,943,2,TRUE,10,5 - 10,NA,0,1
5,2,2,4,14,2,14,402,2,TRUE,10,5 - 10,2,1,0
5,2,3,4,14,2,14,435,2,TRUE,10,5 - 10,2,1,0
5,2,4,4,14,1,4,749,2,FALSE,10,5 - 10,2,0,1
5,2,5,4,14,2,14,342,2,TRUE,10,5 - 10,1,0,1
5,2,6,4,14,2,14,434,2,TRUE,10,5 - 10,2,1,0
5,2,7,4,14,2,14,449,2,TRUE,10,5 - 10,2,1,0
5,2,8,4,14,2,15,543,2,TRUE,10,5 - 10,2,1,0
5,2,9,4,14,2,14,677,2,TRUE,10,5 - 10,2,1,0
5,2,10,4,14,2,14,485,2,TRUE,10,5 - 10,2,1,0
5,3,1,-20,-7,2,-5,616,2,TRUE,13,10 - 15,NA,0,1
5,3,2,-20,-7,1,-18,1311,2,FALSE,13,10 - 15,2,0,1
5,3,3,-20,-7,2,-7,540,2,TRUE,13,10 - 15,1,0,1
5,3,4,-20,-7,2,-7,359,2,TRUE,13,10 - 15,2,1,0
5,3,5,-20,-7,2,-6,408,2,TRUE,13,10 - 15,2,1,0
5,3,6,-20,-7,2,-6,420,2,TRUE,13,10 - 15,2,1,0
5,3,7,-20,-7,1,-19,377,2,FALSE,13,10 - 15,2,0,1
5,3,8,-20,-7,2,-7,494,2,TRUE,13,10 - 15,1,0,1
5,3,9,-20,-7,2,-8,443,2,TRUE,13,10 - 15,2,1,0
5,3,10,-20,-7,2,-6,456,2,TRUE,13,10 - 15,2,1,0
5,4,1,-15,-4,2,-4,600,2,TRUE,11,10 - 15,NA,0,1
5,4,2,-15,-4,1,-13,353,2,FALSE,11,10 - 15,2,0,1
5,4,3,-15,-4,2,-5,512,2,TRUE,11,10 - 15,1,0,1
5,4,4,-15,-4,2,-4,408,2,TRUE,11,10 - 15,2,1,0
5,4,5,-15,-4,2,-6,409,2,TRUE,11,10 - 15,2,1,0
5,4,6,-15,-4,2,-3,399,2,TRUE,11,10 - 15,2,1,0
5,4,7,-15,-4,2,-5,496,2,TRUE,11,10 - 15,2,1,0
5,4,8,-15,-4,2,-6,514,2,TRUE,11,10 - 15,2,1,0
5,4,9,-15,-4,2,-3,494,2,TRUE,11,10 - 15,2,1,0
5,4,10,-15,-4,2,-3,517,2,TRUE,11,10 - 15,2,1,0
5,5,1,16,13,2,11,424,1,FALSE,3,< 5,NA,0,1
5,5,2,16,13,1,17,624,1,TRUE,3,< 5,2,0,1
5,5,3,16,13,1,16,480,1,TRUE,3,< 5,1,1,0
5,5,4,16,13,1,16,495,1,TRUE,3,< 5,1,1,0
5,5,5,16,13,1,17,486,1,TRUE,3,< 5,1,1,0
5,5,6,16,13,1,16,599,1,TRUE,3,< 5,1,1,0
5,5,7,16,13,1,14,643,1,TRUE,3,< 5,1,1,0
5,5,8,16,13,1,16,763,1,TRUE,3,< 5,1,1,0
5,5,9,16,13,1,14,440,1,TRUE,3,< 5,1,1,0
5,5,10,16,13,1,16,453,1,TRUE,3,< 5,1,1,0
5,6,1,-9,-9,2,-10,730,1,FALSE,0,< 5,NA,0,1
5,6,2,-9,-9,1,-10,477,1,TRUE,0,< 5,2,0,1
5,6,3,-9,-9,1,-8,389,1,TRUE,0,< 5,1,1,0
5,6,4,-9,-9,1,-9,502,1,TRUE,0,< 5,1,1,0
5,6,5,-9,-9,2,-9,355,1,FALSE,0,< 5,1,0,1
5,6,6,-9,-9,2,-9,365,1,FALSE,0,< 5,2,1,0
5,6,7,-9,-9,1,-7,372,1,TRUE,0,< 5,2,0,1
5,6,8,-9,-9,1,-9,350,1,TRUE,0,< 5,1,1,0
5,6,9,-9,-9,1,-10,368,1,TRUE,0,< 5,1,1,0
5,6,10,-9,-9,1,-10,341,1,TRUE,0,< 5,1,1,0
5,7,1,6,7,2,7,509,2,TRUE,1,< 5,NA,0,1
5,7,2,6,7,1,5,531,2,FALSE,1,< 5,2,0,1
5,7,3,6,7,2,8,355,2,TRUE,1,< 5,1,0,1
5,7,4,6,7,2,5,339,2,TRUE,1,< 5,2,1,0
5,7,5,6,7,2,7,330,2,TRUE,1,< 5,2,1,0
5,7,6,6,7,2,7,342,2,TRUE,1,< 5,2,1,0
5,7,7,6,7,2,6,318,2,TRUE,1,< 5,2,1,0
5,7,8,6,7,2,7,310,2,TRUE,1,< 5,2,1,0
5,7,9,6,7,2,7,408,2,TRUE,1,< 5,2,1,0
5,7,10,6,7,2,8,359,2,TRUE,1,< 5,2,1,0
5,8,1,14,9,2,9,825,1,FALSE,5,< 5,NA,0,1
5,8,2,14,9,1,14,396,1,TRUE,5,< 5,2,0,1
5,8,3,14,9,1,12,486,1,TRUE,5,< 5,1,1,0
5,8,4,14,9,1,15,364,1,TRUE,5,< 5,1,1,0
5,8,5,14,9,1,13,329,1,TRUE,5,< 5,1,1,0
5,8,6,14,9,1,14,251,1,TRUE,5,< 5,1,1,0
5,8,7,14,9,1,13,311,1,TRUE,5,< 5,1,1,0
5,8,8,14,9,1,12,313,1,TRUE,5,< 5,1,1,0
5,8,9,14,9,1,14,327,1,TRUE,5,< 5,1,1,0
5,8,10,14,9,1,15,360,1,TRUE,5,< 5,1,1,0
5,9,1,-7,22,1,-7,776,2,FALSE,29,> 15,NA,0,1
5,9,2,-7,22,2,22,379,2,TRUE,29,> 15,1,0,1
5,9,3,-7,22,2,24,320,2,TRUE,29,> 15,2,1,0
5,9,4,-7,22,2,22,293,2,TRUE,29,> 15,2,1,0
5,9,5,-7,22,2,22,341,2,TRUE,29,> 15,2,1,0
5,9,6,-7,22,2,21,315,2,TRUE,29,> 15,2,1,0
5,9,7,-7,22,2,21,398,2,TRUE,29,> 15,2,1,0
5,9,8,-7,22,2,23,342,2,TRUE,29,> 15,2,1,0
5,9,9,-7,22,2,21,342,2,TRUE,29,> 15,2,1,0
5,9,10,-7,22,2,22,349,2,TRUE,29,> 15,2,1,0
5,10,1,-1,-1,2,-2,515,1,FALSE,0,< 5,NA,0,1
5,10,2,-1,-1,1,-1,352,1,TRUE,0,< 5,2,0,1
5,10,3,-1,-1,1,0,271,1,TRUE,0,< 5,1,1,0
5,10,4,-1,-1,1,-3,325,1,TRUE,0,< 5,1,1,0
5,10,5,-1,-1,1,-2,353,1,TRUE,0,< 5,1,1,0
5,10,6,-1,-1,1,0,323,1,TRUE,0,< 5,1,1,0
5,10,7,-1,-1,1,-1,307,1,TRUE,0,< 5,1,1,0
5,10,8,-1,-1,1,-1,342,1,TRUE,0,< 5,1,1,0
5,10,9,-1,-1,1,-1,301,1,TRUE,0,< 5,1,1,0
5,10,10,-1,-1,1,0,325,1,TRUE,0,< 5,1,1,0
5,11,1,-3,-17,2,-16,704,1,FALSE,14,10 - 15,NA,0,1
5,11,2,-3,-17,1,-4,363,1,TRUE,14,10 - 15,2,0,1
5,11,3,-3,-17,1,-2,358,1,TRUE,14,10 - 15,1,1,0
5,11,4,-3,-17,1,-4,326,1,TRUE,14,10 - 15,1,1,0
5,11,5,-3,-17,1,-4,300,1,TRUE,14,10 - 15,1,1,0
5,11,6,-3,-17,1,-2,305,1,TRUE,14,10 - 15,1,1,0
5,11,7,-3,-17,1,-3,350,1,TRUE,14,10 - 15,1,1,0
5,11,8,-3,-17,1,-2,327,1,TRUE,14,10 - 15,1,1,0
5,11,9,-3,-17,1,-4,331,1,TRUE,14,10 - 15,1,1,0
5,11,10,-3,-17,1,-4,342,1,TRUE,14,10 - 15,1,1,0
5,12,1,0,1,2,1,887,2,TRUE,1,< 5,NA,0,1
5,12,2,0,1,1,1,395,2,FALSE,1,< 5,2,0,1
5,12,3,0,1,1,0,350,2,FALSE,1,< 5,1,1,0
5,12,4,0,1,2,1,512,2,TRUE,1,< 5,1,0,1
5,12,5,0,1,2,0,296,2,TRUE,1,< 5,2,1,0
5,12,6,0,1,2,1,305,2,TRUE,1,< 5,2,1,0
5,12,7,0,1,2,1,320,2,TRUE,1,< 5,2,1,0
5,12,8,0,1,2,2,320,2,TRUE,1,< 5,2,1,0
5,12,9,0,1,2,2,340,2,TRUE,1,< 5,2,1,0
5,12,10,0,1,2,0,279,2,TRUE,1,< 5,2,1,0
5,13,1,11,-5,2,-5,567,1,FALSE,16,> 15,NA,0,1
5,13,2,11,-5,1,11,412,1,TRUE,16,> 15,2,0,1
5,13,3,11,-5,1,10,304,1,TRUE,16,> 15,1,1,0
5,13,4,11,-5,1,12,233,1,TRUE,16,> 15,1,1,0
5,13,5,11,-5,1,11,313,1,TRUE,16,> 15,1,1,0
5,13,6,11,-5,1,10,320,1,TRUE,16,> 15,1,1,0
5,13,7,11,-5,1,10,331,1,TRUE,16,> 15,1,1,0
5,13,8,11,-5,1,12,314,1,TRUE,16,> 15,1,1,0
5,13,9,11,-5,1,10,288,1,TRUE,16,> 15,1,1,0
5,13,10,11,-5,1,10,318,1,TRUE,16,> 15,1,1,0
5,14,1,2,-10,1,0,653,1,TRUE,12,10 - 15,NA,0,1
5,14,2,2,-10,2,-9,354,1,FALSE,12,10 - 15,1,0,1
5,14,3,2,-10,1,2,361,1,TRUE,12,10 - 15,2,0,1
5,14,4,2,-10,1,1,296,1,TRUE,12,10 - 15,1,1,0
5,14,5,2,-10,1,3,271,1,TRUE,12,10 - 15,1,1,0
5,14,6,2,-10,1,4,304,1,TRUE,12,10 - 15,1,1,0
5,14,7,2,-10,1,2,358,1,TRUE,12,10 - 15,1,1,0
5,14,8,2,-10,1,2,381,1,TRUE,12,10 - 15,1,1,0
5,14,9,2,-10,1,3,328,1,TRUE,12,10 - 15,1,1,0
5,14,10,2,-10,1,3,330,1,TRUE,12,10 - 15,1,1,0
5,15,1,4,-10,1,5,567,1,TRUE,14,10 - 15,NA,0,1
5,15,2,4,-10,2,-10,309,1,FALSE,14,10 - 15,1,0,1
5,15,3,4,-10,1,4,374,1,TRUE,14,10 - 15,2,0,1
5,15,4,4,-10,1,7,372,1,TRUE,14,10 - 15,1,1,0
5,15,5,4,-10,1,4,286,1,TRUE,14,10 - 15,1,1,0
5,15,6,4,-10,1,4,319,1,TRUE,14,10 - 15,1,1,0
5,15,7,4,-10,1,5,304,1,TRUE,14,10 - 15,1,1,0
5,15,8,4,-10,1,5,411,1,TRUE,14,10 - 15,1,1,0
5,15,9,4,-10,1,4,341,1,TRUE,14,10 - 15,1,1,0
5,15,10,4,-10,1,3,355,1,TRUE,14,10 - 15,1,1,0
5,16,1,21,-12,1,22,563,1,TRUE,33,> 15,NA,0,1
5,16,2,21,-12,2,-13,557,1,FALSE,33,> 15,1,0,1
5,16,3,21,-12,1,20,425,1,TRUE,33,> 15,2,0,1
5,16,4,21,-12,1,22,294,1,TRUE,33,> 15,1,1,0
5,16,5,21,-12,1,22,278,1,TRUE,33,> 15,1,1,0
5,16,6,21,-12,1,21,301,1,TRUE,33,> 15,1,1,0
5,16,7,21,-12,1,21,358,1,TRUE,33,> 15,1,1,0
5,16,8,21,-12,1,22,294,1,TRUE,33,> 15,1,1,0
5,16,9,21,-12,1,21,332,1,TRUE,33,> 15,1,1,0
5,16,10,21,-12,1,21,335,1,TRUE,33,> 15,1,1,0
5,17,1,-1,-11,1,-1,416,1,TRUE,10,5 - 10,NA,0,1
5,17,2,-1,-11,2,-13,397,1,FALSE,10,5 - 10,1,0,1
5,17,3,-1,-11,1,0,406,1,TRUE,10,5 - 10,2,0,1
5,17,4,-1,-11,1,-3,259,1,TRUE,10,5 - 10,1,1,0
5,17,5,-1,-11,1,0,314,1,TRUE,10,5 - 10,1,1,0
5,17,6,-1,-11,1,-2,337,1,TRUE,10,5 - 10,1,1,0
5,17,7,-1,-11,1,-1,310,1,TRUE,10,5 - 10,1,1,0
5,17,8,-1,-11,1,-2,280,1,TRUE,10,5 - 10,1,1,0
5,17,9,-1,-11,1,-2,319,1,TRUE,10,5 - 10,1,1,0
5,17,10,-1,-11,1,-2,309,1,TRUE,10,5 - 10,1,1,0
5,18,1,3,6,1,1,430,2,FALSE,3,< 5,NA,0,1
5,18,2,3,6,2,4,619,2,TRUE,3,< 5,1,0,1
5,18,3,3,6,2,6,341,2,TRUE,3,< 5,2,1,0
5,18,4,3,6,2,5,280,2,TRUE,3,< 5,2,1,0
5,18,5,3,6,2,6,634,2,TRUE,3,< 5,2,1,0
5,18,6,3,6,2,5,371,2,TRUE,3,< 5,2,1,0
5,18,7,3,6,2,5,393,2,TRUE,3,< 5,2,1,0
5,18,8,3,6,2,5,397,2,TRUE,3,< 5,2,1,0
5,18,9,3,6,2,8,340,2,TRUE,3,< 5,2,1,0
5,18,10,3,6,2,5,335,2,TRUE,3,< 5,2,1,0
5,19,1,3,-11,2,-12,465,1,FALSE,14,10 - 15,NA,0,1
5,19,2,3,-11,1,4,367,1,TRUE,14,10 - 15,2,0,1
5,19,3,3,-11,1,3,290,1,TRUE,14,10 - 15,1,1,0
5,19,4,3,-11,1,2,333,1,TRUE,14,10 - 15,1,1,0
5,19,5,3,-11,1,3,317,1,TRUE,14,10 - 15,1,1,0
5,19,6,3,-11,1,3,318,1,TRUE,14,10 - 15,1,1,0
5,19,7,3,-11,1,3,308,1,TRUE,14,10 - 15,1,1,0
5,19,8,3,-11,1,3,310,1,TRUE,14,10 - 15,1,1,0
5,19,9,3,-11,1,3,329,1,TRUE,14,10 - 15,1,1,0
5,19,10,3,-11,1,3,313,1,TRUE,14,10 - 15,1,1,0
5,20,1,4,-7,1,3,412,1,TRUE,11,10 - 15,NA,0,1
5,20,2,4,-7,2,-7,352,1,FALSE,11,10 - 15,1,0,1
5,20,3,4,-7,1,5,366,1,TRUE,11,10 - 15,2,0,1
5,20,4,4,-7,1,3,353,1,TRUE,11,10 - 15,1,1,0
5,20,5,4,-7,1,3,342,1,TRUE,11,10 - 15,1,1,0
5,20,6,4,-7,1,4,319,1,TRUE,11,10 - 15,1,1,0
5,20,7,4,-7,1,1,375,1,TRUE,11,10 - 15,1,1,0
5,20,8,4,-7,1,5,351,1,TRUE,11,10 - 15,1,1,0
5,20,9,4,-7,1,5,339,1,TRUE,11,10 - 15,1,1,0
5,20,10,4,-7,1,5,309,1,TRUE,11,10 - 15,1,1,0
6,1,1,0,-8,2,-8,1147,1,FALSE,8,5 - 10,NA,0,1
6,1,2,0,-8,1,0,566,1,TRUE,8,5 - 10,2,0,1
6,1,3,0,-8,2,-9,470,1,FALSE,8,5 - 10,1,0,1
6,1,4,0,-8,1,1,449,1,TRUE,8,5 - 10,2,0,1
6,1,5,0,-8,1,1,495,1,TRUE,8,5 - 10,1,1,0
6,1,6,0,-8,1,0,436,1,TRUE,8,5 - 10,1,1,0
6,1,7,0,-8,1,-1,402,1,TRUE,8,5 - 10,1,1,0
6,1,8,0,-8,1,-1,404,1,TRUE,8,5 - 10,1,1,0
6,1,9,0,-8,2,-6,415,1,FALSE,8,5 - 10,1,0,1
6,1,10,0,-8,1,-1,472,1,TRUE,8,5 - 10,2,0,1
6,2,1,-6,-8,1,-7,552,1,TRUE,2,< 5,NA,0,1
6,2,2,-6,-8,2,-7,415,1,FALSE,2,< 5,1,0,1
6,2,3,-6,-8,2,-8,414,1,FALSE,2,< 5,2,1,0
6,2,4,-6,-8,1,-7,427,1,TRUE,2,< 5,2,0,1
6,2,5,-6,-8,1,-6,393,1,TRUE,2,< 5,1,1,0
6,2,6,-6,-8,1,-6,405,1,TRUE,2,< 5,1,1,0
6,2,7,-6,-8,2,-9,437,1,FALSE,2,< 5,1,0,1
6,2,8,-6,-8,2,-7,405,1,FALSE,2,< 5,2,1,0
6,2,9,-6,-8,1,-6,415,1,TRUE,2,< 5,2,0,1
6,2,10,-6,-8,1,-5,347,1,TRUE,2,< 5,1,1,0
6,3,1,-13,-8,2,-8,505,2,TRUE,5,< 5,NA,0,1
6,3,2,-13,-8,1,-13,392,2,FALSE,5,< 5,2,0,1
6,3,3,-13,-8,2,-8,462,2,TRUE,5,< 5,1,0,1
6,3,4,-13,-8,1,-13,785,2,FALSE,5,< 5,2,0,1
6,3,5,-13,-8,2,-8,382,2,TRUE,5,< 5,1,0,1
6,3,6,-13,-8,2,-7,381,2,TRUE,5,< 5,2,1,0
6,3,7,-13,-8,2,-10,718,2,TRUE,5,< 5,2,1,0
6,3,8,-13,-8,2,-8,359,2,TRUE,5,< 5,2,1,0
6,3,9,-13,-8,2,-8,369,2,TRUE,5,< 5,2,1,0
6,3,10,-13,-8,1,-12,437,2,FALSE,5,< 5,2,0,1
6,4,1,8,-4,2,-3,655,1,FALSE,12,10 - 15,NA,0,1
6,4,2,8,-4,2,-4,413,1,FALSE,12,10 - 15,2,1,0
6,4,3,8,-4,2,-4,393,1,FALSE,12,10 - 15,2,1,0
6,4,4,8,-4,1,8,425,1,TRUE,12,10 - 15,2,0,1
6,4,5,8,-4,1,8,403,1,TRUE,12,10 - 15,1,1,0
6,4,6,8,-4,1,9,359,1,TRUE,12,10 - 15,1,1,0
6,4,7,8,-4,1,6,381,1,TRUE,12,10 - 15,1,1,0
6,4,8,8,-4,1,10,382,1,TRUE,12,10 - 15,1,1,0
6,4,9,8,-4,1,7,380,1,TRUE,12,10 - 15,1,1,0
6,4,10,8,-4,1,8,424,1,TRUE,12,10 - 15,1,1,0
6,5,1,6,4,2,5,517,1,FALSE,2,< 5,NA,0,1
6,5,2,6,4,1,7,415,1,TRUE,2,< 5,2,0,1
6,5,3,6,4,1,6,436,1,TRUE,2,< 5,1,1,0
6,5,4,6,4,2,4,393,1,FALSE,2,< 5,1,0,1
6,5,5,6,4,1,6,393,1,TRUE,2,< 5,2,0,1
6,5,6,6,4,1,6,516,1,TRUE,2,< 5,1,1,0
6,5,7,6,4,2,6,383,1,FALSE,2,< 5,1,0,1
6,5,8,6,4,1,4,400,1,TRUE,2,< 5,2,0,1
6,5,9,6,4,2,4,398,1,FALSE,2,< 5,1,0,1
6,5,10,6,4,1,7,415,1,TRUE,2,< 5,2,0,1
6,6,1,9,-1,2,-1,502,1,FALSE,10,5 - 10,NA,0,1
6,6,2,9,-1,1,9,399,1,TRUE,10,5 - 10,2,0,1
6,6,3,9,-1,1,9,350,1,TRUE,10,5 - 10,1,1,0
6,6,4,9,-1,1,9,368,1,TRUE,10,5 - 10,1,1,0
6,6,5,9,-1,1,8,368,1,TRUE,10,5 - 10,1,1,0
6,6,6,9,-1,1,7,368,1,TRUE,10,5 - 10,1,1,0
6,6,7,9,-1,1,9,368,1,TRUE,10,5 - 10,1,1,0
6,6,8,9,-1,1,9,414,1,TRUE,10,5 - 10,1,1,0
6,6,9,9,-1,1,10,417,1,TRUE,10,5 - 10,1,1,0
6,6,10,9,-1,1,9,369,1,TRUE,10,5 - 10,1,1,0
6,7,1,19,4,2,3,483,1,FALSE,15,10 - 15,NA,0,1
6,7,2,19,4,1,18,436,1,TRUE,15,10 - 15,2,0,1
6,7,3,19,4,1,17,335,1,TRUE,15,10 - 15,1,1,0
6,7,4,19,4,1,19,351,1,TRUE,15,10 - 15,1,1,0
6,7,5,19,4,1,20,336,1,TRUE,15,10 - 15,1,1,0
6,7,6,19,4,1,18,352,1,TRUE,15,10 - 15,1,1,0
6,7,7,19,4,1,18,350,1,TRUE,15,10 - 15,1,1,0
6,7,8,19,4,1,18,383,1,TRUE,15,10 - 15,1,1,0
6,7,9,19,4,1,19,382,1,TRUE,15,10 - 15,1,1,0
6,7,10,19,4,1,19,363,1,TRUE,15,10 - 15,1,1,0
6,8,1,-9,20,2,20,384,2,TRUE,29,> 15,NA,0,1
6,8,2,-9,20,1,-9,419,2,FALSE,29,> 15,2,0,1
6,8,3,-9,20,2,20,334,2,TRUE,29,> 15,1,0,1
6,8,4,-9,20,2,19,320,2,TRUE,29,> 15,2,1,0
6,8,5,-9,20,2,19,386,2,TRUE,29,> 15,2,1,0
6,8,6,-9,20,2,21,400,2,TRUE,29,> 15,2,1,0
6,8,7,-9,20,2,20,435,2,TRUE,29,> 15,2,1,0
6,8,8,-9,20,2,21,350,2,TRUE,29,> 15,2,1,0
6,8,9,-9,20,2,20,400,2,TRUE,29,> 15,2,1,0
6,8,10,-9,20,2,20,516,2,TRUE,29,> 15,2,1,0
6,9,1,9,5,2,5,535,1,FALSE,4,< 5,NA,0,1
6,9,2,9,5,1,10,432,1,TRUE,4,< 5,2,0,1
6,9,3,9,5,1,8,336,1,TRUE,4,< 5,1,1,0
6,9,4,9,5,1,8,419,1,TRUE,4,< 5,1,1,0
6,9,5,9,5,1,9,499,1,TRUE,4,< 5,1,1,0
6,9,6,9,5,1,9,498,1,TRUE,4,< 5,1,1,0
6,9,7,9,5,1,8,670,1,TRUE,4,< 5,1,1,0
6,9,8,9,5,1,9,383,1,TRUE,4,< 5,1,1,0
6,9,9,9,5,1,9,366,1,TRUE,4,< 5,1,1,0
6,9,10,9,5,1,9,352,1,TRUE,4,< 5,1,1,0
6,10,1,-4,-6,2,-5,753,1,FALSE,2,< 5,NA,0,1
6,10,2,-4,-6,1,-4,417,1,TRUE,2,< 5,2,0,1
6,10,3,-4,-6,2,-6,416,1,FALSE,2,< 5,1,0,1
6,10,4,-4,-6,1,-2,476,1,TRUE,2,< 5,2,0,1
6,10,5,-4,-6,2,-6,583,1,FALSE,2,< 5,1,0,1
6,10,6,-4,-6,1,-3,549,1,TRUE,2,< 5,2,0,1
6,10,7,-4,-6,2,-6,886,1,FALSE,2,< 5,1,0,1
6,10,8,-4,-6,1,-4,486,1,TRUE,2,< 5,2,0,1
6,10,9,-4,-6,1,-4,450,1,TRUE,2,< 5,1,1,0
6,10,10,-4,-6,1,-4,486,1,TRUE,2,< 5,1,1,0
6,11,1,4,-20,2,-19,466,1,FALSE,24,> 15,NA,0,1
6,11,2,4,-20,1,5,368,1,TRUE,24,> 15,2,0,1
6,11,3,4,-20,1,3,303,1,TRUE,24,> 15,1,1,0
6,11,4,4,-20,1,5,451,1,TRUE,24,> 15,1,1,0
6,11,5,4,-20,1,4,352,1,TRUE,24,> 15,1,1,0
6,11,6,4,-20,1,3,667,1,TRUE,24,> 15,1,1,0
6,11,7,4,-20,1,5,348,1,TRUE,24,> 15,1,1,0
6,11,8,4,-20,1,4,349,1,TRUE,24,> 15,1,1,0
6,11,9,4,-20,1,4,367,1,TRUE,24,> 15,1,1,0
6,11,10,4,-20,1,3,335,1,TRUE,24,> 15,1,1,0
6,12,1,-18,-9,2,-9,417,2,TRUE,9,5 - 10,NA,0,1
6,12,2,-18,-9,1,-18,348,2,FALSE,9,5 - 10,2,0,1
6,12,3,-18,-9,2,-8,510,2,TRUE,9,5 - 10,1,0,1
6,12,4,-18,-9,2,-9,357,2,TRUE,9,5 - 10,2,1,0
6,12,5,-18,-9,2,-9,335,2,TRUE,9,5 - 10,2,1,0
6,12,6,-18,-9,2,-9,367,2,TRUE,9,5 - 10,2,1,0
6,12,7,-18,-9,2,-9,352,2,TRUE,9,5 - 10,2,1,0
6,12,8,-18,-9,2,-9,383,2,TRUE,9,5 - 10,2,1,0
6,12,9,-18,-9,2,-10,382,2,TRUE,9,5 - 10,2,1,0
6,12,10,-18,-9,2,-9,465,2,TRUE,9,5 - 10,2,1,0
6,13,1,-3,-1,2,-1,449,2,TRUE,2,< 5,NA,0,1
6,13,2,-3,-1,1,-3,384,2,FALSE,2,< 5,2,0,1
6,13,3,-3,-1,2,-1,367,2,TRUE,2,< 5,1,0,1
6,13,4,-3,-1,2,-1,332,2,TRUE,2,< 5,2,1,0
6,13,5,-3,-1,2,0,335,2,TRUE,2,< 5,2,1,0
6,13,6,-3,-1,2,-2,366,2,TRUE,2,< 5,2,1,0
6,13,7,-3,-1,1,-2,432,2,FALSE,2,< 5,2,0,1
6,13,8,-3,-1,2,-2,382,2,TRUE,2,< 5,1,0,1
6,13,9,-3,-1,2,2,365,2,TRUE,2,< 5,2,1,0
6,13,10,-3,-1,2,1,449,2,TRUE,2,< 5,2,1,0
6,14,1,-1,11,2,11,428,2,TRUE,12,10 - 15,NA,0,1
6,14,2,-1,11,1,-1,418,2,FALSE,12,10 - 15,2,0,1
6,14,3,-1,11,2,10,384,2,TRUE,12,10 - 15,1,0,1
6,14,4,-1,11,2,11,400,2,TRUE,12,10 - 15,2,1,0
6,14,5,-1,11,2,11,315,2,TRUE,12,10 - 15,2,1,0
6,14,6,-1,11,2,11,364,2,TRUE,12,10 - 15,2,1,0
6,14,7,-1,11,2,10,384,2,TRUE,12,10 - 15,2,1,0
6,14,8,-1,11,2,10,366,2,TRUE,12,10 - 15,2,1,0
6,14,9,-1,11,2,13,436,2,TRUE,12,10 - 15,2,1,0
6,14,10,-1,11,2,10,433,2,TRUE,12,10 - 15,2,1,0
6,15,1,-4,4,2,6,499,2,TRUE,8,5 - 10,NA,0,1
6,15,2,-4,4,1,-4,400,2,FALSE,8,5 - 10,2,0,1
6,15,3,-4,4,2,4,335,2,TRUE,8,5 - 10,1,0,1
6,15,4,-4,4,2,4,317,2,TRUE,8,5 - 10,2,1,0
6,15,5,-4,4,2,4,366,2,TRUE,8,5 - 10,2,1,0
6,15,6,-4,4,2,4,417,2,TRUE,8,5 - 10,2,1,0
6,15,7,-4,4,2,4,383,2,TRUE,8,5 - 10,2,1,0
6,15,8,-4,4,2,4,397,2,TRUE,8,5 - 10,2,1,0
6,15,9,-4,4,2,4,432,2,TRUE,8,5 - 10,2,1,0
6,15,10,-4,4,2,4,383,2,TRUE,8,5 - 10,2,1,0
6,16,1,-5,-3,2,-4,420,2,TRUE,2,< 5,NA,0,1
6,16,2,-5,-3,1,-6,333,2,FALSE,2,< 5,2,0,1
6,16,3,-5,-3,2,-3,367,2,TRUE,2,< 5,1,0,1
6,16,4,-5,-3,2,-2,333,2,TRUE,2,< 5,2,1,0
6,16,5,-5,-3,2,-2,367,2,TRUE,2,< 5,2,1,0
6,16,6,-5,-3,2,-3,351,2,TRUE,2,< 5,2,1,0
6,16,7,-5,-3,2,-3,381,2,TRUE,2,< 5,2,1,0
6,16,8,-5,-3,2,-2,400,2,TRUE,2,< 5,2,1,0
6,16,9,-5,-3,2,-2,350,2,TRUE,2,< 5,2,1,0
6,16,10,-5,-3,2,-2,365,2,TRUE,2,< 5,2,1,0
6,17,1,-11,-2,2,-2,404,2,TRUE,9,5 - 10,NA,0,1
6,17,2,-11,-2,1,-12,450,2,FALSE,9,5 - 10,2,0,1
6,17,3,-11,-2,2,0,335,2,TRUE,9,5 - 10,1,0,1
6,17,4,-11,-2,2,-2,319,2,TRUE,9,5 - 10,2,1,0
6,17,5,-11,-2,2,-2,333,2,TRUE,9,5 - 10,2,1,0
6,17,6,-11,-2,2,-3,351,2,TRUE,9,5 - 10,2,1,0
6,17,7,-11,-2,2,-3,484,2,TRUE,9,5 - 10,2,1,0
6,17,8,-11,-2,2,-3,334,2,TRUE,9,5 - 10,2,1,0
6,17,9,-11,-2,2,-3,350,2,TRUE,9,5 - 10,2,1,0
6,17,10,-11,-2,2,-2,448,2,TRUE,9,5 - 10,2,1,0
6,18,1,-7,-2,2,-4,400,2,TRUE,5,< 5,NA,0,1
6,18,2,-7,-2,1,-9,402,2,FALSE,5,< 5,2,0,1
6,18,3,-7,-2,2,-2,864,2,TRUE,5,< 5,1,0,1
6,18,4,-7,-2,2,-1,366,2,TRUE,5,< 5,2,1,0
6,18,5,-7,-2,2,-2,467,2,TRUE,5,< 5,2,1,0
6,18,6,-7,-2,2,-1,419,2,TRUE,5,< 5,2,1,0
6,18,7,-7,-2,2,-5,733,2,TRUE,5,< 5,2,1,0
6,18,8,-7,-2,2,-1,435,2,TRUE,5,< 5,2,1,0
6,18,9,-7,-2,2,-3,401,2,TRUE,5,< 5,2,1,0
6,18,10,-7,-2,2,-1,463,2,TRUE,5,< 5,2,1,0
6,19,1,-8,-15,2,-15,418,1,FALSE,7,5 - 10,NA,0,1
6,19,2,-8,-15,1,-8,382,1,TRUE,7,5 - 10,2,0,1
6,19,3,-8,-15,1,-8,400,1,TRUE,7,5 - 10,1,1,0
6,19,4,-8,-15,1,-8,351,1,TRUE,7,5 - 10,1,1,0
6,19,5,-8,-15,1,-7,316,1,TRUE,7,5 - 10,1,1,0
6,19,6,-8,-15,1,-7,333,1,TRUE,7,5 - 10,1,1,0
6,19,7,-8,-15,1,-7,285,1,TRUE,7,5 - 10,1,1,0
6,19,8,-8,-15,1,-8,351,1,TRUE,7,5 - 10,1,1,0
6,19,9,-8,-15,1,-9,401,1,TRUE,7,5 - 10,1,1,0
6,19,10,-8,-15,1,-9,422,1,TRUE,7,5 - 10,1,1,0
6,20,1,2,-8,2,-9,400,1,FALSE,10,5 - 10,NA,0,1
6,20,2,2,-8,1,2,367,1,TRUE,10,5 - 10,2,0,1
6,20,3,2,-8,1,2,384,1,TRUE,10,5 - 10,1,1,0
6,20,4,2,-8,1,1,630,1,TRUE,10,5 - 10,1,1,0
6,20,5,2,-8,1,4,353,1,TRUE,10,5 - 10,1,1,0
6,20,6,2,-8,1,2,498,1,TRUE,10,5 - 10,1,1,0
6,20,7,2,-8,1,3,415,1,TRUE,10,5 - 10,1,1,0
6,20,8,2,-8,1,0,366,1,TRUE,10,5 - 10,1,1,0
6,20,9,2,-8,1,2,319,1,TRUE,10,5 - 10,1,1,0
6,20,10,2,-8,1,3,418,1,TRUE,10,5 - 10,1,1,0
7,1,1,-5,-6,2,-7,1241,1,FALSE,1,< 5,NA,0,1
7,1,2,-5,-6,1,-5,876,1,TRUE,1,< 5,2,0,1
7,1,3,-5,-6,2,-6,434,1,FALSE,1,< 5,1,0,1
7,1,4,-5,-6,2,-4,382,1,FALSE,1,< 5,2,1,0
7,1,5,-5,-6,1,-4,417,1,TRUE,1,< 5,2,0,1
7,1,6,-5,-6,2,-5,400,1,FALSE,1,< 5,1,0,1
7,1,7,-5,-6,2,-5,512,1,FALSE,1,< 5,2,1,0
7,1,8,-5,-6,2,-7,335,1,FALSE,1,< 5,2,1,0
7,1,9,-5,-6,2,-6,304,1,FALSE,1,< 5,2,1,0
7,1,10,-5,-6,2,-6,303,1,FALSE,1,< 5,2,1,0
7,2,1,-2,5,2,5,849,2,TRUE,7,5 - 10,NA,0,1
7,2,2,-2,5,2,3,463,2,TRUE,7,5 - 10,2,1,0
7,2,3,-2,5,1,-3,515,2,FALSE,7,5 - 10,2,0,1
7,2,4,-2,5,2,5,320,2,TRUE,7,5 - 10,1,0,1
7,2,5,-2,5,2,8,384,2,TRUE,7,5 - 10,2,1,0
7,2,6,-2,5,2,7,352,2,TRUE,7,5 - 10,2,1,0
7,2,7,-2,5,2,4,306,2,TRUE,7,5 - 10,2,1,0
7,2,8,-2,5,2,4,399,2,TRUE,7,5 - 10,2,1,0
7,2,9,-2,5,2,5,322,2,TRUE,7,5 - 10,2,1,0
7,2,10,-2,5,2,5,350,2,TRUE,7,5 - 10,2,1,0
7,3,1,-3,7,2,8,415,2,TRUE,10,5 - 10,NA,0,1
7,3,2,-3,7,1,-3,479,2,FALSE,10,5 - 10,2,0,1
7,3,3,-3,7,2,7,288,2,TRUE,10,5 - 10,1,0,1
7,3,4,-3,7,2,6,366,2,TRUE,10,5 - 10,2,1,0
7,3,5,-3,7,2,6,338,2,TRUE,10,5 - 10,2,1,0
7,3,6,-3,7,2,7,351,2,TRUE,10,5 - 10,2,1,0
7,3,7,-3,7,2,8,303,2,TRUE,10,5 - 10,2,1,0
7,3,8,-3,7,2,7,354,2,TRUE,10,5 - 10,2,1,0
7,3,9,-3,7,2,7,368,2,TRUE,10,5 - 10,2,1,0
7,3,10,-3,7,2,8,495,2,TRUE,10,5 - 10,2,1,0
7,4,1,-8,-9,2,-9,611,1,FALSE,1,< 5,NA,0,1
7,4,2,-8,-9,1,-7,337,1,TRUE,1,< 5,2,0,1
7,4,3,-8,-9,1,-9,448,1,TRUE,1,< 5,1,1,0
7,4,4,-8,-9,2,-10,353,1,FALSE,1,< 5,1,0,1
7,4,5,-8,-9,1,-6,318,1,TRUE,1,< 5,2,0,1
7,4,6,-8,-9,1,-10,367,1,TRUE,1,< 5,1,1,0
7,4,7,-8,-9,2,-10,433,1,FALSE,1,< 5,1,0,1
7,4,8,-8,-9,1,-8,363,1,TRUE,1,< 5,2,0,1
7,4,9,-8,-9,2,-9,350,1,FALSE,1,< 5,1,0,1
7,4,10,-8,-9,1,-7,319,1,TRUE,1,< 5,2,0,1
7,5,1,-11,-8,1,-12,642,2,FALSE,3,< 5,NA,0,1
7,5,2,-11,-8,2,-9,494,2,TRUE,3,< 5,1,0,1
7,5,3,-11,-8,1,-12,385,2,FALSE,3,< 5,2,0,1
7,5,4,-11,-8,2,-8,353,2,TRUE,3,< 5,1,0,1
7,5,5,-11,-8,2,-6,368,2,TRUE,3,< 5,2,1,0
7,5,6,-11,-8,2,-7,303,2,TRUE,3,< 5,2,1,0
7,5,7,-11,-8,2,-9,304,2,TRUE,3,< 5,2,1,0
7,5,8,-11,-8,2,-6,432,2,TRUE,3,< 5,2,1,0
7,5,9,-11,-8,2,-8,446,2,TRUE,3,< 5,2,1,0
7,5,10,-11,-8,2,-8,443,2,TRUE,3,< 5,2,1,0
7,6,1,1,12,2,12,371,2,TRUE,11,10 - 15,NA,0,1
7,6,2,1,12,1,2,383,2,FALSE,11,10 - 15,2,0,1
7,6,3,1,12,2,12,303,2,TRUE,11,10 - 15,1,0,1
7,6,4,1,12,2,13,256,2,TRUE,11,10 - 15,2,1,0
7,6,5,1,12,2,12,639,2,TRUE,11,10 - 15,2,1,0
7,6,6,1,12,2,13,290,2,TRUE,11,10 - 15,2,1,0
7,6,7,1,12,2,13,304,2,TRUE,11,10 - 15,2,1,0
7,6,8,1,12,2,10,256,2,TRUE,11,10 - 15,2,1,0
7,6,9,1,12,2,13,303,2,TRUE,11,10 - 15,2,1,0
7,6,10,1,12,2,13,376,2,TRUE,11,10 - 15,2,1,0
7,7,1,-16,-11,2,-12,467,2,TRUE,5,< 5,NA,0,1
7,7,2,-16,-11,1,-16,384,2,FALSE,5,< 5,2,0,1
7,7,3,-16,-11,2,-11,592,2,TRUE,5,< 5,1,0,1
7,7,4,-16,-11,1,-16,287,2,FALSE,5,< 5,2,0,1
7,7,5,-16,-11,2,-10,256,2,TRUE,5,< 5,1,0,1
7,7,6,-16,-11,2,-12,303,2,TRUE,5,< 5,2,1,0
7,7,7,-16,-11,2,-12,366,2,TRUE,5,< 5,2,1,0
7,7,8,-16,-11,2,-11,284,2,TRUE,5,< 5,2,1,0
7,7,9,-16,-11,2,-10,348,2,TRUE,5,< 5,2,1,0
7,7,10,-16,-11,2,-10,298,2,TRUE,5,< 5,2,1,0
7,8,1,-10,-6,2,-6,415,2,TRUE,4,< 5,NA,0,1
7,8,2,-10,-6,1,-13,319,2,FALSE,4,< 5,2,0,1
7,8,3,-10,-6,2,-5,431,2,TRUE,4,< 5,1,0,1
7,8,4,-10,-6,2,-5,283,2,TRUE,4,< 5,2,1,0
7,8,5,-10,-6,2,-6,255,2,TRUE,4,< 5,2,1,0
7,8,6,-10,-6,2,-5,288,2,TRUE,4,< 5,2,1,0
7,8,7,-10,-6,2,-6,304,2,TRUE,4,< 5,2,1,0
7,8,8,-10,-6,2,-5,304,2,TRUE,4,< 5,2,1,0
7,8,9,-10,-6,2,-6,304,2,TRUE,4,< 5,2,1,0
7,8,10,-10,-6,2,-7,319,2,TRUE,4,< 5,2,1,0
7,9,1,-1,-6,2,-5,416,1,FALSE,5,< 5,NA,0,1
7,9,2,-1,-6,1,-1,447,1,TRUE,5,< 5,2,0,1
7,9,3,-1,-6,1,-2,417,1,TRUE,5,< 5,1,1,0
7,9,4,-1,-6,1,-2,251,1,TRUE,5,< 5,1,1,0
7,9,5,-1,-6,1,-1,287,1,TRUE,5,< 5,1,1,0
7,9,6,-1,-6,1,0,317,1,TRUE,5,< 5,1,1,0
7,9,7,-1,-6,1,1,339,1,TRUE,5,< 5,1,1,0
7,9,8,-1,-6,1,-3,351,1,TRUE,5,< 5,1,1,0
7,9,9,-1,-6,1,0,320,1,TRUE,5,< 5,1,1,0
7,9,10,-1,-6,1,-1,368,1,TRUE,5,< 5,1,1,0
7,10,1,6,5,1,7,447,1,TRUE,1,< 5,NA,0,1
7,10,2,6,5,2,7,357,1,FALSE,1,< 5,1,0,1
7,10,3,6,5,1,4,319,1,TRUE,1,< 5,2,0,1
7,10,4,6,5,2,7,315,1,FALSE,1,< 5,1,0,1
7,10,5,6,5,2,3,269,1,FALSE,1,< 5,2,1,0
7,10,6,6,5,1,7,368,1,TRUE,1,< 5,2,0,1
7,10,7,6,5,1,6,367,1,TRUE,1,< 5,1,1,0
7,10,8,6,5,1,7,303,1,TRUE,1,< 5,1,1,0
7,10,9,6,5,1,6,322,1,TRUE,1,< 5,1,1,0
7,10,10,6,5,1,6,347,1,TRUE,1,< 5,1,1,0
7,11,1,7,-14,1,6,448,1,TRUE,21,> 15,NA,0,1
7,11,2,7,-14,2,-13,303,1,FALSE,21,> 15,1,0,1
7,11,3,7,-14,1,6,399,1,TRUE,21,> 15,2,0,1
7,11,4,7,-14,1,8,319,1,TRUE,21,> 15,1,1,0
7,11,5,7,-14,1,7,271,1,TRUE,21,> 15,1,1,0
7,11,6,7,-14,1,8,303,1,TRUE,21,> 15,1,1,0
7,11,7,7,-14,1,6,417,1,TRUE,21,> 15,1,1,0
7,11,8,7,-14,1,6,6616,1,TRUE,21,> 15,1,1,0
7,11,9,7,-14,1,6,294,1,TRUE,21,> 15,1,1,0
7,11,10,7,-14,1,8,272,1,TRUE,21,> 15,1,1,0
7,12,1,7,-2,2,0,656,1,FALSE,9,5 - 10,NA,0,1
7,12,2,7,-2,1,7,336,1,TRUE,9,5 - 10,2,0,1
7,12,3,7,-2,1,6,465,1,TRUE,9,5 - 10,1,1,0
7,12,4,7,-2,1,8,271,1,TRUE,9,5 - 10,1,1,0
7,12,5,7,-2,1,5,273,1,TRUE,9,5 - 10,1,1,0
7,12,6,7,-2,1,6,288,1,TRUE,9,5 - 10,1,1,0
7,12,7,7,-2,1,7,369,1,TRUE,9,5 - 10,1,1,0
7,12,8,7,-2,1,6,306,1,TRUE,9,5 - 10,1,1,0
7,12,9,7,-2,1,8,320,1,TRUE,9,5 - 10,1,1,0
7,12,10,7,-2,1,8,272,1,TRUE,9,5 - 10,1,1,0
7,13,1,6,6,1,5,496,1,TRUE,0,< 5,NA,0,1
7,13,2,6,6,2,4,630,1,FALSE,0,< 5,1,0,1
7,13,3,6,6,1,7,303,1,TRUE,0,< 5,2,0,1
7,13,4,6,6,2,7,499,1,FALSE,0,< 5,1,0,1
7,13,5,6,6,1,6,368,1,TRUE,0,< 5,2,0,1
7,13,6,6,6,2,4,305,1,FALSE,0,< 5,1,0,1
7,13,7,6,6,1,7,271,1,TRUE,0,< 5,2,0,1
7,13,8,6,6,1,5,334,1,TRUE,0,< 5,1,1,0
7,13,9,6,6,1,8,303,1,TRUE,0,< 5,1,1,0
7,13,10,6,6,1,7,338,1,TRUE,0,< 5,1,1,0
7,14,1,-16,-20,1,-16,414,1,TRUE,4,< 5,NA,0,1
7,14,2,-16,-20,2,-20,321,1,FALSE,4,< 5,1,0,1
7,14,3,-16,-20,1,-15,400,1,TRUE,4,< 5,2,0,1
7,14,4,-16,-20,2,-21,332,1,FALSE,4,< 5,1,0,1
7,14,5,-16,-20,1,-14,512,1,TRUE,4,< 5,2,0,1
7,14,6,-16,-20,1,-16,288,1,TRUE,4,< 5,1,1,0
7,14,7,-16,-20,1,-17,319,1,TRUE,4,< 5,1,1,0
7,14,8,-16,-20,1,-16,287,1,TRUE,4,< 5,1,1,0
7,14,9,-16,-20,1,-16,349,1,TRUE,4,< 5,1,1,0
7,14,10,-16,-20,1,-17,302,1,TRUE,4,< 5,1,1,0
7,15,1,5,1,1,6,448,1,TRUE,4,< 5,NA,0,1
7,15,2,5,1,2,0,476,1,FALSE,4,< 5,1,0,1
7,15,3,5,1,1,5,1458,1,TRUE,4,< 5,2,0,1
7,15,4,5,1,1,6,1069,1,TRUE,4,< 5,1,1,0
7,15,5,5,1,1,6,352,1,TRUE,4,< 5,1,1,0
7,15,6,5,1,1,5,340,1,TRUE,4,< 5,1,1,0
7,15,7,5,1,1,3,386,1,TRUE,4,< 5,1,1,0
7,15,8,5,1,1,4,381,1,TRUE,4,< 5,1,1,0
7,15,9,5,1,1,5,354,1,TRUE,4,< 5,1,1,0
7,15,10,5,1,1,5,387,1,TRUE,4,< 5,1,1,0
7,16,1,-14,4,1,-14,400,2,FALSE,18,> 15,NA,0,1
7,16,2,-14,4,2,3,335,2,TRUE,18,> 15,1,0,1
7,16,3,-14,4,2,3,335,2,TRUE,18,> 15,2,1,0
7,16,4,-14,4,2,4,321,2,TRUE,18,> 15,2,1,0
7,16,5,-14,4,2,2,287,2,TRUE,18,> 15,2,1,0
7,16,6,-14,4,2,4,319,2,TRUE,18,> 15,2,1,0
7,16,7,-14,4,2,6,303,2,TRUE,18,> 15,2,1,0
7,16,8,-14,4,2,4,304,2,TRUE,18,> 15,2,1,0
7,16,9,-14,4,2,4,322,2,TRUE,18,> 15,2,1,0
7,16,10,-14,4,2,3,351,2,TRUE,18,> 15,2,1,0
7,17,1,-9,-4,1,-10,352,2,FALSE,5,< 5,NA,0,1
7,17,2,-9,-4,2,-4,399,2,TRUE,5,< 5,1,0,1
7,17,3,-9,-4,1,-10,384,2,FALSE,5,< 5,2,0,1
7,17,4,-9,-4,2,-4,367,2,TRUE,5,< 5,1,0,1
7,17,5,-9,-4,2,-4,309,2,TRUE,5,< 5,2,1,0
7,17,6,-9,-4,2,-5,286,2,TRUE,5,< 5,2,1,0
7,17,7,-9,-4,2,-5,333,2,TRUE,5,< 5,2,1,0
7,17,8,-9,-4,2,-5,495,2,TRUE,5,< 5,2,1,0
7,17,9,-9,-4,2,-5,352,2,TRUE,5,< 5,2,1,0
7,17,10,-9,-4,2,-5,368,2,TRUE,5,< 5,2,1,0
7,18,1,12,6,1,13,385,1,TRUE,6,5 - 10,NA,0,1
7,18,2,12,6,2,5,383,1,FALSE,6,5 - 10,1,0,1
7,18,3,12,6,1,11,287,1,TRUE,6,5 - 10,2,0,1
7,18,4,12,6,1,13,591,1,TRUE,6,5 - 10,1,1,0
7,18,5,12,6,1,11,319,1,TRUE,6,5 - 10,1,1,0
7,18,6,12,6,1,12,320,1,TRUE,6,5 - 10,1,1,0
7,18,7,12,6,1,12,401,1,TRUE,6,5 - 10,1,1,0
7,18,8,12,6,1,11,380,1,TRUE,6,5 - 10,1,1,0
7,18,9,12,6,1,13,319,1,TRUE,6,5 - 10,1,1,0
7,18,10,12,6,1,13,303,1,TRUE,6,5 - 10,1,1,0
7,19,1,8,2,1,8,536,1,TRUE,6,5 - 10,NA,0,1
7,19,2,8,2,2,4,382,1,FALSE,6,5 - 10,1,0,1
7,19,3,8,2,1,8,303,1,TRUE,6,5 - 10,2,0,1
7,19,4,8,2,1,8,367,1,TRUE,6,5 - 10,1,1,0
7,19,5,8,2,1,9,289,1,TRUE,6,5 - 10,1,1,0
7,19,6,8,2,1,9,257,1,TRUE,6,5 - 10,1,1,0
7,19,7,8,2,1,8,273,1,TRUE,6,5 - 10,1,1,0
7,19,8,8,2,1,8,349,1,TRUE,6,5 - 10,1,1,0
7,19,9,8,2,1,9,336,1,TRUE,6,5 - 10,1,1,0
7,19,10,8,2,1,9,315,1,TRUE,6,5 - 10,1,1,0
7,20,1,14,1,1,13,418,1,TRUE,13,10 - 15,NA,0,1
7,20,2,14,1,2,0,830,1,FALSE,13,10 - 15,1,0,1
7,20,3,14,1,1,15,329,1,TRUE,13,10 - 15,2,0,1
7,20,4,14,1,1,14,273,1,TRUE,13,10 - 15,1,1,0
7,20,5,14,1,1,15,273,1,TRUE,13,10 - 15,1,1,0
7,20,6,14,1,1,15,284,1,TRUE,13,10 - 15,1,1,0
7,20,7,14,1,1,15,337,1,TRUE,13,10 - 15,1,1,0
7,20,8,14,1,1,16,336,1,TRUE,13,10 - 15,1,1,0
7,20,9,14,1,1,15,306,1,TRUE,13,10 - 15,1,1,0
7,20,10,14,1,1,15,335,1,TRUE,13,10 - 15,1,1,0
8,1,1,-10,12,1,-11,1256,2,FALSE,22,> 15,NA,0,1
8,1,2,-10,12,2,11,901,2,TRUE,22,> 15,1,0,1
8,1,3,-10,12,2,13,791,2,TRUE,22,> 15,2,1,0
8,1,4,-10,12,2,12,888,2,TRUE,22,> 15,2,1,0
8,1,5,-10,12,2,10,1080,2,TRUE,22,> 15,2,1,0
8,1,6,-10,12,1,-11,688,2,FALSE,22,> 15,2,0,1
8,1,7,-10,12,2,11,569,2,TRUE,22,> 15,1,0,1
8,1,8,-10,12,2,13,552,2,TRUE,22,> 15,2,1,0
8,1,9,-10,12,2,13,656,2,TRUE,22,> 15,2,1,0
8,1,10,-10,12,2,12,576,2,TRUE,22,> 15,2,1,0
8,2,1,2,-1,1,3,1344,1,TRUE,3,< 5,NA,0,1
8,2,2,2,-1,2,0,712,1,FALSE,3,< 5,1,0,1
8,2,3,2,-1,2,-1,864,1,FALSE,3,< 5,2,1,0
8,2,4,2,-1,1,3,871,1,TRUE,3,< 5,2,0,1
8,2,5,2,-1,1,1,696,1,TRUE,3,< 5,1,1,0
8,2,6,2,-1,1,2,576,1,TRUE,3,< 5,1,1,0
8,2,7,2,-1,2,1,616,1,FALSE,3,< 5,1,0,1
8,2,8,2,-1,2,-1,791,1,FALSE,3,< 5,2,1,0
8,2,9,2,-1,1,1,664,1,TRUE,3,< 5,2,0,1
8,2,10,2,-1,1,2,856,1,TRUE,3,< 5,1,1,0
8,3,1,-2,-2,1,-2,1401,1,TRUE,0,< 5,NA,0,1
8,3,2,-2,-2,1,-3,626,1,TRUE,0,< 5,1,1,0
8,3,3,-2,-2,1,-3,616,1,TRUE,0,< 5,1,1,0
8,3,4,-2,-2,2,-1,488,1,FALSE,0,< 5,1,0,1
8,3,5,-2,-2,2,0,575,1,FALSE,0,< 5,2,1,0
8,3,6,-2,-2,2,-1,519,1,FALSE,0,< 5,2,1,0
8,3,7,-2,-2,2,-2,471,1,FALSE,0,< 5,2,1,0
8,3,8,-2,-2,2,-3,480,1,FALSE,0,< 5,2,1,0
8,3,9,-2,-2,2,-1,615,1,FALSE,0,< 5,2,1,0
8,3,10,-2,-2,1,-2,1112,1,TRUE,0,< 5,2,0,1
8,4,1,-8,-7,1,-7,1184,2,FALSE,1,< 5,NA,0,1
8,4,2,-8,-7,2,-6,544,2,TRUE,1,< 5,1,0,1
8,4,3,-8,-7,2,-8,831,2,TRUE,1,< 5,2,1,0
8,4,4,-8,-7,1,-7,639,2,FALSE,1,< 5,2,0,1
8,4,5,-8,-7,1,-9,682,2,FALSE,1,< 5,1,1,0
8,4,6,-8,-7,2,-8,606,2,TRUE,1,< 5,1,0,1
8,4,7,-8,-7,2,-7,641,2,TRUE,1,< 5,2,1,0
8,4,8,-8,-7,2,-6,680,2,TRUE,1,< 5,2,1,0
8,4,9,-8,-7,2,-6,560,2,TRUE,1,< 5,2,1,0
8,4,10,-8,-7,1,-9,528,2,FALSE,1,< 5,2,0,1
8,5,1,7,-8,1,8,1033,1,TRUE,15,10 - 15,NA,0,1
8,5,2,7,-8,1,7,929,1,TRUE,15,10 - 15,1,1,0
8,5,3,7,-8,2,-7,631,1,FALSE,15,10 - 15,1,0,1
8,5,4,7,-8,2,-9,831,1,FALSE,15,10 - 15,2,1,0
8,5,5,7,-8,1,7,457,1,TRUE,15,10 - 15,2,0,1
8,5,6,7,-8,1,7,496,1,TRUE,15,10 - 15,1,1,0
8,5,7,7,-8,1,9,496,1,TRUE,15,10 - 15,1,1,0
8,5,8,7,-8,1,7,774,1,TRUE,15,10 - 15,1,1,0
8,5,9,7,-8,1,7,504,1,TRUE,15,10 - 15,1,1,0
8,5,10,7,-8,1,7,517,1,TRUE,15,10 - 15,1,1,0
8,6,1,-6,-5,1,-8,1305,2,FALSE,1,< 5,NA,0,1
8,6,2,-6,-5,2,-5,496,2,TRUE,1,< 5,1,0,1
8,6,3,-6,-5,1,-6,856,2,FALSE,1,< 5,2,0,1
8,6,4,-6,-5,2,-5,680,2,TRUE,1,< 5,1,0,1
8,6,5,-6,-5,2,-5,592,2,TRUE,1,< 5,2,1,0
8,6,6,-6,-5,1,-6,608,2,FALSE,1,< 5,2,0,1
8,6,7,-6,-5,2,-6,567,2,TRUE,1,< 5,1,0,1
8,6,8,-6,-5,2,-5,616,2,TRUE,1,< 5,2,1,0
8,6,9,-6,-5,2,-6,552,2,TRUE,1,< 5,2,1,0
8,6,10,-6,-5,2,-4,583,2,TRUE,1,< 5,2,1,0
8,7,1,-3,8,1,-2,894,2,FALSE,11,10 - 15,NA,0,1
8,7,2,-3,8,1,-4,632,2,FALSE,11,10 - 15,1,1,0
8,7,3,-3,8,2,8,518,2,TRUE,11,10 - 15,1,0,1
8,7,4,-3,8,2,8,467,2,TRUE,11,10 - 15,2,1,0
8,7,5,-3,8,2,9,529,2,TRUE,11,10 - 15,2,1,0
8,7,6,-3,8,2,8,472,2,TRUE,11,10 - 15,2,1,0
8,7,7,-3,8,2,7,658,2,TRUE,11,10 - 15,2,1,0
8,7,8,-3,8,2,6,462,2,TRUE,11,10 - 15,2,1,0
8,7,9,-3,8,2,11,560,2,TRUE,11,10 - 15,2,1,0
8,7,10,-3,8,2,6,655,2,TRUE,11,10 - 15,2,1,0
8,8,1,-10,-13,1,-10,1353,1,TRUE,3,< 5,NA,0,1
8,8,2,-10,-13,2,-14,926,1,FALSE,3,< 5,1,0,1
8,8,3,-10,-13,2,-13,888,1,FALSE,3,< 5,2,1,0
8,8,4,-10,-13,1,-11,629,1,TRUE,3,< 5,2,0,1
8,8,5,-10,-13,1,-10,568,1,TRUE,3,< 5,1,1,0
8,8,6,-10,-13,1,-12,761,1,TRUE,3,< 5,1,1,0
8,8,7,-10,-13,2,-13,575,1,FALSE,3,< 5,1,0,1
8,8,8,-10,-13,1,-10,504,1,TRUE,3,< 5,2,0,1
8,8,9,-10,-13,1,-12,590,1,TRUE,3,< 5,1,1,0
8,8,10,-10,-13,1,-9,526,1,TRUE,3,< 5,1,1,0
8,9,1,-14,-5,1,-14,976,2,FALSE,9,5 - 10,NA,0,1
8,9,2,-14,-5,1,-15,1143,2,FALSE,9,5 - 10,1,1,0
8,9,3,-14,-5,2,-4,544,2,TRUE,9,5 - 10,1,0,1
8,9,4,-14,-5,2,-4,598,2,TRUE,9,5 - 10,2,1,0
8,9,5,-14,-5,2,-6,486,2,TRUE,9,5 - 10,2,1,0
8,9,6,-14,-5,2,-4,488,2,TRUE,9,5 - 10,2,1,0
8,9,7,-14,-5,2,-4,416,2,TRUE,9,5 - 10,2,1,0
8,9,8,-14,-5,2,-5,456,2,TRUE,9,5 - 10,2,1,0
8,9,9,-14,-5,2,-5,552,2,TRUE,9,5 - 10,2,1,0
8,9,10,-14,-5,2,-5,431,2,TRUE,9,5 - 10,2,1,0
8,10,1,0,2,1,0,876,2,FALSE,2,< 5,NA,0,1
8,10,2,0,2,1,-1,1007,2,FALSE,2,< 5,1,1,0
8,10,3,0,2,2,3,545,2,TRUE,2,< 5,1,0,1
8,10,4,0,2,2,2,456,2,TRUE,2,< 5,2,1,0
8,10,5,0,2,2,1,478,2,TRUE,2,< 5,2,1,0
8,10,6,0,2,2,3,529,2,TRUE,2,< 5,2,1,0
8,10,7,0,2,2,4,487,2,TRUE,2,< 5,2,1,0
8,10,8,0,2,2,3,592,2,TRUE,2,< 5,2,1,0
8,10,9,0,2,1,0,589,2,FALSE,2,< 5,2,0,1
8,10,10,0,2,2,2,566,2,TRUE,2,< 5,1,0,1
8,11,1,2,17,1,2,1055,2,FALSE,15,10 - 15,NA,0,1
8,11,2,2,17,1,0,1037,2,FALSE,15,10 - 15,1,1,0
8,11,3,2,17,2,18,657,2,TRUE,15,10 - 15,1,0,1
8,11,4,2,17,2,18,504,2,TRUE,15,10 - 15,2,1,0
8,11,5,2,17,2,18,511,2,TRUE,15,10 - 15,2,1,0
8,11,6,2,17,2,16,496,2,TRUE,15,10 - 15,2,1,0
8,11,7,2,17,2,19,456,2,TRUE,15,10 - 15,2,1,0
8,11,8,2,17,2,16,455,2,TRUE,15,10 - 15,2,1,0
8,11,9,2,17,2,18,444,2,TRUE,15,10 - 15,2,1,0
8,11,10,2,17,2,18,408,2,TRUE,15,10 - 15,2,1,0
8,12,1,-8,-11,1,-7,830,1,TRUE,3,< 5,NA,0,1
8,12,2,-8,-11,2,-10,488,1,FALSE,3,< 5,1,0,1
8,12,3,-8,-11,1,-9,639,1,TRUE,3,< 5,2,0,1
8,12,4,-8,-11,2,-11,728,1,FALSE,3,< 5,1,0,1
8,12,5,-8,-11,1,-9,512,1,TRUE,3,< 5,2,0,1
8,12,6,-8,-11,1,-6,552,1,TRUE,3,< 5,1,1,0
8,12,7,-8,-11,1,-9,480,1,TRUE,3,< 5,1,1,0
8,12,8,-8,-11,1,-8,533,1,TRUE,3,< 5,1,1,0
8,12,9,-8,-11,1,-7,511,1,TRUE,3,< 5,1,1,0
8,12,10,-8,-11,1,-9,607,1,TRUE,3,< 5,1,1,0
8,13,1,-7,2,1,-6,983,2,FALSE,9,5 - 10,NA,0,1
8,13,2,-7,2,2,2,1688,2,TRUE,9,5 - 10,1,0,1
8,13,3,-7,2,2,3,1008,2,TRUE,9,5 - 10,2,1,0
8,13,4,-7,2,1,-7,864,2,FALSE,9,5 - 10,2,0,1
8,13,5,-7,2,2,1,543,2,TRUE,9,5 - 10,1,0,1
8,13,6,-7,2,2,2,457,2,TRUE,9,5 - 10,2,1,0
8,13,7,-7,2,2,4,494,2,TRUE,9,5 - 10,2,1,0
8,13,8,-7,2,2,1,551,2,TRUE,9,5 - 10,2,1,0
8,13,9,-7,2,2,1,600,2,TRUE,9,5 - 10,2,1,0
8,13,10,-7,2,2,0,510,2,TRUE,9,5 - 10,2,1,0
8,14,1,5,1,1,4,961,1,TRUE,4,< 5,NA,0,1
8,14,2,5,1,2,2,520,1,FALSE,4,< 5,1,0,1
8,14,3,5,1,2,1,1143,1,FALSE,4,< 5,2,1,0
8,14,4,5,1,1,6,464,1,TRUE,4,< 5,2,0,1
8,14,5,5,1,1,4,441,1,TRUE,4,< 5,1,1,0
8,14,6,5,1,1,5,512,1,TRUE,4,< 5,1,1,0
8,14,7,5,1,1,3,583,1,TRUE,4,< 5,1,1,0
8,14,8,5,1,1,5,479,1,TRUE,4,< 5,1,1,0
8,14,9,5,1,1,4,486,1,TRUE,4,< 5,1,1,0
8,14,10,5,1,1,5,455,1,TRUE,4,< 5,1,1,0
8,15,1,-8,-6,1,-9,1351,2,FALSE,2,< 5,NA,0,1
8,15,2,-8,-6,2,-6,1375,2,TRUE,2,< 5,1,0,1
8,15,3,-8,-6,2,-5,713,2,TRUE,2,< 5,2,1,0
8,15,4,-8,-6,2,-6,536,2,TRUE,2,< 5,2,1,0
8,15,5,-8,-6,1,-9,824,2,FALSE,2,< 5,2,0,1
8,15,6,-8,-6,2,-7,479,2,TRUE,2,< 5,1,0,1
8,15,7,-8,-6,2,-6,474,2,TRUE,2,< 5,2,1,0
8,15,8,-8,-6,2,-5,440,2,TRUE,2,< 5,2,1,0
8,15,9,-8,-6,2,-6,511,2,TRUE,2,< 5,2,1,0
8,15,10,-8,-6,2,-6,535,2,TRUE,2,< 5,2,1,0
8,16,1,-7,10,1,-7,832,2,FALSE,17,> 15,NA,0,1
8,16,2,-7,10,2,9,1306,2,TRUE,17,> 15,1,0,1
8,16,3,-7,10,2,9,408,2,TRUE,17,> 15,2,1,0
8,16,4,-7,10,2,11,543,2,TRUE,17,> 15,2,1,0
8,16,5,-7,10,2,11,454,2,TRUE,17,> 15,2,1,0
8,16,6,-7,10,2,9,461,2,TRUE,17,> 15,2,1,0
8,16,7,-7,10,2,10,438,2,TRUE,17,> 15,2,1,0
8,16,8,-7,10,2,11,448,2,TRUE,17,> 15,2,1,0
8,16,9,-7,10,2,9,470,2,TRUE,17,> 15,2,1,0
8,16,10,-7,10,2,11,503,2,TRUE,17,> 15,2,1,0
8,17,1,1,-4,2,-5,937,1,FALSE,5,< 5,NA,0,1
8,17,2,1,-4,1,2,447,1,TRUE,5,< 5,2,0,1
8,17,3,1,-4,1,2,1399,1,TRUE,5,< 5,1,1,0
8,17,4,1,-4,1,2,440,1,TRUE,5,< 5,1,1,0
8,17,5,1,-4,1,1,448,1,TRUE,5,< 5,1,1,0
8,17,6,1,-4,1,0,423,1,TRUE,5,< 5,1,1,0
8,17,7,1,-4,1,-1,463,1,TRUE,5,< 5,1,1,0
8,17,8,1,-4,1,1,471,1,TRUE,5,< 5,1,1,0
8,17,9,1,-4,1,1,455,1,TRUE,5,< 5,1,1,0
8,17,10,1,-4,1,1,448,1,TRUE,5,< 5,1,1,0
8,18,1,-7,7,1,-7,776,2,FALSE,14,10 - 15,NA,0,1
8,18,2,-7,7,2,8,528,2,TRUE,14,10 - 15,1,0,1
8,18,3,-7,7,2,8,470,2,TRUE,14,10 - 15,2,1,0
8,18,4,-7,7,2,7,472,2,TRUE,14,10 - 15,2,1,0
8,18,5,-7,7,2,5,414,2,TRUE,14,10 - 15,2,1,0
8,18,6,-7,7,2,7,437,2,TRUE,14,10 - 15,2,1,0
8,18,7,-7,7,2,7,408,2,TRUE,14,10 - 15,2,1,0
8,18,8,-7,7,2,7,487,2,TRUE,14,10 - 15,2,1,0
8,18,9,-7,7,2,9,441,2,TRUE,14,10 - 15,2,1,0
8,18,10,-7,7,2,8,464,2,TRUE,14,10 - 15,2,1,0
8,19,1,-4,1,2,0,896,2,TRUE,5,< 5,NA,0,1
8,19,2,-4,1,1,-4,687,2,FALSE,5,< 5,2,0,1
8,19,3,-4,1,2,1,615,2,TRUE,5,< 5,1,0,1
8,19,4,-4,1,2,0,431,2,TRUE,5,< 5,2,1,0
8,19,5,-4,1,2,3,464,2,TRUE,5,< 5,2,1,0
8,19,6,-4,1,2,1,453,2,TRUE,5,< 5,2,1,0
8,19,7,-4,1,1,-4,670,2,FALSE,5,< 5,2,0,1
8,19,8,-4,1,2,0,478,2,TRUE,5,< 5,1,0,1
8,19,9,-4,1,2,0,577,2,TRUE,5,< 5,2,1,0
8,19,10,-4,1,2,1,480,2,TRUE,5,< 5,2,1,0
8,20,1,-8,0,2,1,727,2,TRUE,8,5 - 10,NA,0,1
8,20,2,-8,0,1,-9,647,2,FALSE,8,5 - 10,2,0,1
8,20,3,-8,0,2,-1,576,2,TRUE,8,5 - 10,1,0,1
8,20,4,-8,0,2,0,607,2,TRUE,8,5 - 10,2,1,0
8,20,5,-8,0,2,-1,543,2,TRUE,8,5 - 10,2,1,0
8,20,6,-8,0,2,-1,511,2,TRUE,8,5 - 10,2,1,0
8,20,7,-8,0,2,0,584,2,TRUE,8,5 - 10,2,1,0
8,20,8,-8,0,2,-1,481,2,TRUE,8,5 - 10,2,1,0
8,20,9,-8,0,2,-1,501,2,TRUE,8,5 - 10,2,1,0
8,20,10,-8,0,2,-2,504,2,TRUE,8,5 - 10,2,1,0
9,1,1,2,12,2,12,1773,2,TRUE,10,5 - 10,NA,0,1
9,1,2,2,12,1,1,846,2,FALSE,10,5 - 10,2,0,1
9,1,3,2,12,2,11,704,2,TRUE,10,5 - 10,1,0,1
9,1,4,2,12,2,11,496,2,TRUE,10,5 - 10,2,1,0
9,1,5,2,12,2,12,386,2,TRUE,10,5 - 10,2,1,0
9,1,6,2,12,2,12,335,2,TRUE,10,5 - 10,2,1,0
9,1,7,2,12,2,11,327,2,TRUE,10,5 - 10,2,1,0
9,1,8,2,12,2,14,427,2,TRUE,10,5 - 10,2,1,0
9,1,9,2,12,2,11,369,2,TRUE,10,5 - 10,2,1,0
9,1,10,2,12,2,12,319,2,TRUE,10,5 - 10,2,1,0
9,2,1,-1,1,2,2,3104,2,TRUE,2,< 5,NA,0,1
9,2,2,-1,1,1,-1,496,2,FALSE,2,< 5,2,0,1
9,2,3,-1,1,2,2,563,2,TRUE,2,< 5,1,0,1
9,2,4,-1,1,1,0,1271,2,FALSE,2,< 5,2,0,1
9,2,5,-1,1,2,1,662,2,TRUE,2,< 5,1,0,1
9,2,6,-1,1,1,0,624,2,FALSE,2,< 5,2,0,1
9,2,7,-1,1,2,3,638,2,TRUE,2,< 5,1,0,1
9,2,8,-1,1,2,1,456,2,TRUE,2,< 5,2,1,0
9,2,9,-1,1,2,1,529,2,TRUE,2,< 5,2,1,0
9,2,10,-1,1,2,0,917,2,TRUE,2,< 5,2,1,0
9,3,1,5,10,1,4,1480,2,FALSE,5,< 5,NA,0,1
9,3,2,5,10,2,9,575,2,TRUE,5,< 5,1,0,1
9,3,3,5,10,2,10,449,2,TRUE,5,< 5,2,1,0
9,3,4,5,10,2,8,358,2,TRUE,5,< 5,2,1,0
9,3,5,5,10,2,9,343,2,TRUE,5,< 5,2,1,0
9,3,6,5,10,2,10,372,2,TRUE,5,< 5,2,1,0
9,3,7,5,10,2,9,415,2,TRUE,5,< 5,2,1,0
9,3,8,5,10,2,12,424,2,TRUE,5,< 5,2,1,0
9,3,9,5,10,2,11,385,2,TRUE,5,< 5,2,1,0
9,3,10,5,10,2,10,384,2,TRUE,5,< 5,2,1,0
9,4,1,-13,-7,2,-7,1623,2,TRUE,6,5 - 10,NA,0,1
9,4,2,-13,-7,1,-15,527,2,FALSE,6,5 - 10,2,0,1
9,4,3,-13,-7,2,-7,399,2,TRUE,6,5 - 10,1,0,1
9,4,4,-13,-7,2,-6,1215,2,TRUE,6,5 - 10,2,1,0
9,4,5,-13,-7,2,-7,452,2,TRUE,6,5 - 10,2,1,0
9,4,6,-13,-7,1,-12,822,2,FALSE,6,5 - 10,2,0,1
9,4,7,-13,-7,2,-7,422,2,TRUE,6,5 - 10,1,0,1
9,4,8,-13,-7,2,-7,342,2,TRUE,6,5 - 10,2,1,0
9,4,9,-13,-7,2,-7,384,2,TRUE,6,5 - 10,2,1,0
9,4,10,-13,-7,2,-7,408,2,TRUE,6,5 - 10,2,1,0
9,5,1,-13,5,2,4,1880,2,TRUE,18,> 15,NA,0,1
9,5,2,-13,5,1,-13,439,2,FALSE,18,> 15,2,0,1
9,5,3,-13,5,2,5,503,2,TRUE,18,> 15,1,0,1
9,5,4,-13,5,2,6,401,2,TRUE,18,> 15,2,1,0
9,5,5,-13,5,2,3,408,2,TRUE,18,> 15,2,1,0
9,5,6,-13,5,2,5,399,2,TRUE,18,> 15,2,1,0
9,5,7,-13,5,2,3,381,2,TRUE,18,> 15,2,1,0
9,5,8,-13,5,2,6,398,2,TRUE,18,> 15,2,1,0
9,5,9,-13,5,2,5,376,2,TRUE,18,> 15,2,1,0
9,5,10,-13,5,2,4,357,2,TRUE,18,> 15,2,1,0
9,6,1,22,-6,1,22,1155,1,TRUE,28,> 15,NA,0,1
9,6,2,22,-6,1,23,328,1,TRUE,28,> 15,1,1,0
9,6,3,22,-6,1,23,332,1,TRUE,28,> 15,1,1,0
9,6,4,22,-6,2,-5,637,1,FALSE,28,> 15,1,0,1
9,6,5,22,-6,1,22,328,1,TRUE,28,> 15,2,0,1
9,6,6,22,-6,1,22,327,1,TRUE,28,> 15,1,1,0
9,6,7,22,-6,1,20,480,1,TRUE,28,> 15,1,1,0
9,6,8,22,-6,1,19,328,1,TRUE,28,> 15,1,1,0
9,6,9,22,-6,1,23,373,1,TRUE,28,> 15,1,1,0
9,6,10,22,-6,1,21,377,1,TRUE,28,> 15,1,1,0
9,7,1,5,-5,1,6,1176,1,TRUE,10,5 - 10,NA,0,1
9,7,2,5,-5,2,-5,447,1,FALSE,10,5 - 10,1,0,1
9,7,3,5,-5,1,5,404,1,TRUE,10,5 - 10,2,0,1
9,7,4,5,-5,1,5,391,1,TRUE,10,5 - 10,1,1,0
9,7,5,5,-5,1,6,319,1,TRUE,10,5 - 10,1,1,0
9,7,6,5,-5,1,4,344,1,TRUE,10,5 - 10,1,1,0
9,7,7,5,-5,1,6,369,1,TRUE,10,5 - 10,1,1,0
9,7,8,5,-5,1,4,351,1,TRUE,10,5 - 10,1,1,0
9,7,9,5,-5,1,4,390,1,TRUE,10,5 - 10,1,1,0
9,7,10,5,-5,1,4,498,1,TRUE,10,5 - 10,1,1,0
9,8,1,10,7,2,5,1159,1,FALSE,3,< 5,NA,0,1
9,8,2,10,7,1,9,392,1,TRUE,3,< 5,2,0,1
9,8,3,10,7,1,9,376,1,TRUE,3,< 5,1,1,0
9,8,4,10,7,1,8,327,1,TRUE,3,< 5,1,1,0
9,8,5,10,7,1,10,399,1,TRUE,3,< 5,1,1,0
9,8,6,10,7,1,11,412,1,TRUE,3,< 5,1,1,0
9,8,7,10,7,1,9,399,1,TRUE,3,< 5,1,1,0
9,8,8,10,7,1,10,416,1,TRUE,3,< 5,1,1,0
9,8,9,10,7,1,10,407,1,TRUE,3,< 5,1,1,0
9,8,10,10,7,1,10,397,1,TRUE,3,< 5,1,1,0
9,9,1,10,-6,1,10,2090,1,TRUE,16,> 15,NA,0,1
9,9,2,10,-6,2,-7,400,1,FALSE,16,> 15,1,0,1
9,9,3,10,-6,1,10,359,1,TRUE,16,> 15,2,0,1
9,9,4,10,-6,1,10,311,1,TRUE,16,> 15,1,1,0
9,9,5,10,-6,1,10,384,1,TRUE,16,> 15,1,1,0
9,9,6,10,-6,1,8,390,1,TRUE,16,> 15,1,1,0
9,9,7,10,-6,1,9,632,1,TRUE,16,> 15,1,1,0
9,9,8,10,-6,1,9,703,1,TRUE,16,> 15,1,1,0
9,9,9,10,-6,1,11,742,1,TRUE,16,> 15,1,1,0
9,9,10,10,-6,1,11,389,1,TRUE,16,> 15,1,1,0
9,10,1,6,4,2,3,1264,1,FALSE,2,< 5,NA,0,1
9,10,2,6,4,2,5,591,1,FALSE,2,< 5,2,1,0
9,10,3,6,4,1,4,421,1,TRUE,2,< 5,2,0,1
9,10,4,6,4,2,4,561,1,FALSE,2,< 5,1,0,1
9,10,5,6,4,1,4,430,1,TRUE,2,< 5,2,0,1
9,10,6,6,4,2,3,384,1,FALSE,2,< 5,1,0,1
9,10,7,6,4,1,7,398,1,TRUE,2,< 5,2,0,1
9,10,8,6,4,1,4,358,1,TRUE,2,< 5,1,1,0
9,10,9,6,4,1,6,366,1,TRUE,2,< 5,1,1,0
9,10,10,6,4,1,7,783,1,TRUE,2,< 5,1,1,0
9,11,1,8,12,2,13,1088,2,TRUE,4,< 5,NA,0,1
9,11,2,8,12,2,12,417,2,TRUE,4,< 5,2,1,0
9,11,3,8,12,2,13,366,2,TRUE,4,< 5,2,1,0
9,11,4,8,12,1,8,423,2,FALSE,4,< 5,2,0,1
9,11,5,8,12,2,13,390,2,TRUE,4,< 5,1,0,1
9,11,6,8,12,1,8,616,2,FALSE,4,< 5,2,0,1
9,11,7,8,12,2,13,440,2,TRUE,4,< 5,1,0,1
9,11,8,8,12,2,12,384,2,TRUE,4,< 5,2,1,0
9,11,9,8,12,2,12,342,2,TRUE,4,< 5,2,1,0
9,11,10,8,12,2,12,335,2,TRUE,4,< 5,2,1,0
9,12,1,0,-3,1,1,920,1,TRUE,3,< 5,NA,0,1
9,12,2,0,-3,2,-4,353,1,FALSE,3,< 5,1,0,1
9,12,3,0,-3,1,0,304,1,TRUE,3,< 5,2,0,1
9,12,4,0,-3,1,0,353,1,TRUE,3,< 5,1,1,0
9,12,5,0,-3,1,-1,366,1,TRUE,3,< 5,1,1,0
9,12,6,0,-3,2,-3,356,1,FALSE,3,< 5,1,0,1
9,12,7,0,-3,1,0,376,1,TRUE,3,< 5,2,0,1
9,12,8,0,-3,1,-1,335,1,TRUE,3,< 5,1,1,0
9,12,9,0,-3,1,-1,360,1,TRUE,3,< 5,1,1,0
9,12,10,0,-3,1,-2,331,1,TRUE,3,< 5,1,1,0
9,13,1,2,11,1,3,913,2,FALSE,9,5 - 10,NA,0,1
9,13,2,2,11,1,1,416,2,FALSE,9,5 - 10,1,1,0
9,13,3,2,11,2,10,375,2,TRUE,9,5 - 10,1,0,1
9,13,4,2,11,2,13,360,2,TRUE,9,5 - 10,2,1,0
9,13,5,2,11,2,11,1233,2,TRUE,9,5 - 10,2,1,0
9,13,6,2,11,2,11,473,2,TRUE,9,5 - 10,2,1,0
9,13,7,2,11,2,11,359,2,TRUE,9,5 - 10,2,1,0
9,13,8,2,11,2,10,383,2,TRUE,9,5 - 10,2,1,0
9,13,9,2,11,2,11,393,2,TRUE,9,5 - 10,2,1,0
9,13,10,2,11,2,10,417,2,TRUE,9,5 - 10,2,1,0
9,14,1,-16,-4,2,-6,945,2,TRUE,12,10 - 15,NA,0,1
9,14,2,-16,-4,1,-16,321,2,FALSE,12,10 - 15,2,0,1
9,14,3,-16,-4,2,-5,329,2,TRUE,12,10 - 15,1,0,1
9,14,4,-16,-4,2,-3,327,2,TRUE,12,10 - 15,2,1,0
9,14,5,-16,-4,2,-6,365,2,TRUE,12,10 - 15,2,1,0
9,14,6,-16,-4,2,-5,303,2,TRUE,12,10 - 15,2,1,0
9,14,7,-16,-4,2,-3,359,2,TRUE,12,10 - 15,2,1,0
9,14,8,-16,-4,2,-5,327,2,TRUE,12,10 - 15,2,1,0
9,14,9,-16,-4,2,-5,336,2,TRUE,12,10 - 15,2,1,0
9,14,10,-16,-4,2,-5,360,2,TRUE,12,10 - 15,2,1,0
9,15,1,10,5,2,5,751,1,FALSE,5,< 5,NA,0,1
9,15,2,10,5,1,8,360,1,TRUE,5,< 5,2,0,1
9,15,3,10,5,1,9,429,1,TRUE,5,< 5,1,1,0
9,15,4,10,5,1,9,351,1,TRUE,5,< 5,1,1,0
9,15,5,10,5,1,10,374,1,TRUE,5,< 5,1,1,0
9,15,6,10,5,1,9,392,1,TRUE,5,< 5,1,1,0
9,15,7,10,5,1,10,462,1,TRUE,5,< 5,1,1,0
9,15,8,10,5,1,12,342,1,TRUE,5,< 5,1,1,0
9,15,9,10,5,1,11,360,1,TRUE,5,< 5,1,1,0
9,15,10,10,5,1,10,392,1,TRUE,5,< 5,1,1,0
9,16,1,-18,-11,2,-11,752,2,TRUE,7,5 - 10,NA,0,1
9,16,2,-18,-11,1,-19,336,2,FALSE,7,5 - 10,2,0,1
9,16,3,-18,-11,2,-12,342,2,TRUE,7,5 - 10,1,0,1
9,16,4,-18,-11,2,-10,312,2,TRUE,7,5 - 10,2,1,0
9,16,5,-18,-11,2,-11,356,2,TRUE,7,5 - 10,2,1,0
9,16,6,-18,-11,2,-11,347,2,TRUE,7,5 - 10,2,1,0
9,16,7,-18,-11,2,-10,368,2,TRUE,7,5 - 10,2,1,0
9,16,8,-18,-11,2,-10,368,2,TRUE,7,5 - 10,2,1,0
9,16,9,-18,-11,2,-10,366,2,TRUE,7,5 - 10,2,1,0
9,16,10,-18,-11,2,-12,336,2,TRUE,7,5 - 10,2,1,0
9,17,1,0,13,2,15,504,2,TRUE,13,10 - 15,NA,0,1
9,17,2,0,13,1,0,340,2,FALSE,13,10 - 15,2,0,1
9,17,3,0,13,2,12,342,2,TRUE,13,10 - 15,1,0,1
9,17,4,0,13,2,12,337,2,TRUE,13,10 - 15,2,1,0
9,17,5,0,13,2,13,321,2,TRUE,13,10 - 15,2,1,0
9,17,6,0,13,2,13,344,2,TRUE,13,10 - 15,2,1,0
9,17,7,0,13,2,14,327,2,TRUE,13,10 - 15,2,1,0
9,17,8,0,13,2,14,384,2,TRUE,13,10 - 15,2,1,0
9,17,9,0,13,2,15,367,2,TRUE,13,10 - 15,2,1,0
9,17,10,0,13,2,12,352,2,TRUE,13,10 - 15,2,1,0
9,18,1,-6,15,1,-6,951,2,FALSE,21,> 15,NA,0,1
9,18,2,-6,15,2,15,361,2,TRUE,21,> 15,1,0,1
9,18,3,-6,15,2,14,390,2,TRUE,21,> 15,2,1,0
9,18,4,-6,15,2,14,433,2,TRUE,21,> 15,2,1,0
9,18,5,-6,15,2,15,440,2,TRUE,21,> 15,2,1,0
9,18,6,-6,15,2,14,526,2,TRUE,21,> 15,2,1,0
9,18,7,-6,15,2,15,452,2,TRUE,21,> 15,2,1,0
9,18,8,-6,15,2,18,406,2,TRUE,21,> 15,2,1,0
9,18,9,-6,15,2,15,433,2,TRUE,21,> 15,2,1,0
9,18,10,-6,15,2,15,441,2,TRUE,21,> 15,2,1,0
9,19,1,0,-1,2,0,1032,1,FALSE,1,< 5,NA,0,1
9,19,2,0,-1,1,2,347,1,TRUE,1,< 5,2,0,1
9,19,3,0,-1,1,0,398,1,TRUE,1,< 5,1,1,0
9,19,4,0,-1,2,0,365,1,FALSE,1,< 5,1,0,1
9,19,5,0,-1,1,0,367,1,TRUE,1,< 5,2,0,1
9,19,6,0,-1,2,0,448,1,FALSE,1,< 5,1,0,1
9,19,7,0,-1,1,0,461,1,TRUE,1,< 5,2,0,1
9,19,8,0,-1,1,-1,344,1,TRUE,1,< 5,1,1,0
9,19,9,0,-1,1,-1,408,1,TRUE,1,< 5,1,1,0
9,19,10,0,-1,2,-2,378,1,FALSE,1,< 5,1,0,1
9,20,1,-1,-3,1,-1,1016,1,TRUE,2,< 5,NA,0,1
9,20,2,-1,-3,2,-3,391,1,FALSE,2,< 5,1,0,1
9,20,3,-1,-3,1,0,465,1,TRUE,2,< 5,2,0,1
9,20,4,-1,-3,1,0,368,1,TRUE,2,< 5,1,1,0
9,20,5,-1,-3,1,-3,308,1,TRUE,2,< 5,1,1,0
9,20,6,-1,-3,1,-1,407,1,TRUE,2,< 5,1,1,0
9,20,7,-1,-3,1,0,360,1,TRUE,2,< 5,1,1,0
9,20,8,-1,-3,1,-2,401,1,TRUE,2,< 5,1,1,0
9,20,9,-1,-3,1,-2,355,1,TRUE,2,< 5,1,1,0
9,20,10,-1,-3,1,-1,391,1,TRUE,2,< 5,1,1,0
10,1,1,5,-4,1,6,2320,1,TRUE,9,5 - 10,NA,0,1
10,1,2,5,-4,1,6,1093,1,TRUE,9,5 - 10,1,1,0
10,1,3,5,-4,1,4,1134,1,TRUE,9,5 - 10,1,1,0
10,1,4,5,-4,2,-4,903,1,FALSE,9,5 - 10,1,0,1
10,1,5,5,-4,1,6,800,1,TRUE,9,5 - 10,2,0,1
10,1,6,5,-4,1,5,839,1,TRUE,9,5 - 10,1,1,0
10,1,7,5,-4,1,4,887,1,TRUE,9,5 - 10,1,1,0
10,1,8,5,-4,1,5,895,1,TRUE,9,5 - 10,1,1,0
10,1,9,5,-4,1,5,831,1,TRUE,9,5 - 10,1,1,0
10,1,10,5,-4,1,6,768,1,TRUE,9,5 - 10,1,1,0
10,2,1,10,2,2,2,2288,1,FALSE,8,5 - 10,NA,0,1
10,2,2,10,2,1,11,935,1,TRUE,8,5 - 10,2,0,1
10,2,3,10,2,1,11,887,1,TRUE,8,5 - 10,1,1,0
10,2,4,10,2,1,9,871,1,TRUE,8,5 - 10,1,1,0
10,2,5,10,2,1,11,871,1,TRUE,8,5 - 10,1,1,0
10,2,6,10,2,1,10,791,1,TRUE,8,5 - 10,1,1,0
10,2,7,10,2,1,9,584,1,TRUE,8,5 - 10,1,1,0
10,2,8,10,2,1,9,560,1,TRUE,8,5 - 10,1,1,0
10,2,9,10,2,1,10,519,1,TRUE,8,5 - 10,1,1,0
10,2,10,10,2,1,10,560,1,TRUE,8,5 - 10,1,1,0
10,3,1,10,-8,2,-8,2064,1,FALSE,18,> 15,NA,0,1
10,3,2,10,-8,1,9,598,1,TRUE,18,> 15,2,0,1
10,3,3,10,-8,1,12,534,1,TRUE,18,> 15,1,1,0
10,3,4,10,-8,1,11,528,1,TRUE,18,> 15,1,1,0
10,3,5,10,-8,1,12,527,1,TRUE,18,> 15,1,1,0
10,3,6,10,-8,1,10,576,1,TRUE,18,> 15,1,1,0
10,3,7,10,-8,1,10,527,1,TRUE,18,> 15,1,1,0
10,3,8,10,-8,1,10,528,1,TRUE,18,> 15,1,1,0
10,3,9,10,-8,1,10,511,1,TRUE,18,> 15,1,1,0
10,3,10,10,-8,1,9,472,1,TRUE,18,> 15,1,1,0
10,4,1,8,0,1,7,1184,1,TRUE,8,5 - 10,NA,0,1
10,4,2,8,0,2,0,728,1,FALSE,8,5 - 10,1,0,1
10,4,3,8,0,1,9,527,1,TRUE,8,5 - 10,2,0,1
10,4,4,8,0,1,9,495,1,TRUE,8,5 - 10,1,1,0
10,4,5,8,0,1,8,471,1,TRUE,8,5 - 10,1,1,0
10,4,6,8,0,1,7,471,1,TRUE,8,5 - 10,1,1,0
10,4,7,8,0,1,7,526,1,TRUE,8,5 - 10,1,1,0
10,4,8,8,0,1,10,518,1,TRUE,8,5 - 10,1,1,0
10,4,9,8,0,1,10,512,1,TRUE,8,5 - 10,1,1,0
10,4,10,8,0,1,8,511,1,TRUE,8,5 - 10,1,1,0
10,5,1,6,-3,1,6,1022,1,TRUE,9,5 - 10,NA,0,1
10,5,2,6,-3,2,-3,543,1,FALSE,9,5 - 10,1,0,1
10,5,3,6,-3,1,6,453,1,TRUE,9,5 - 10,2,0,1
10,5,4,6,-3,1,6,431,1,TRUE,9,5 - 10,1,1,0
10,5,5,6,-3,1,7,392,1,TRUE,9,5 - 10,1,1,0
10,5,6,6,-3,1,7,431,1,TRUE,9,5 - 10,1,1,0
10,5,7,6,-3,1,9,431,1,TRUE,9,5 - 10,1,1,0
10,5,8,6,-3,1,7,414,1,TRUE,9,5 - 10,1,1,0
10,5,9,6,-3,1,6,504,1,TRUE,9,5 - 10,1,1,0
10,5,10,6,-3,1,7,469,1,TRUE,9,5 - 10,1,1,0
10,6,1,-2,-3,1,-2,1423,1,TRUE,1,< 5,NA,0,1
10,6,2,-2,-3,2,-3,495,1,FALSE,1,< 5,1,0,1
10,6,3,-2,-3,1,-3,567,1,TRUE,1,< 5,2,0,1
10,6,4,-2,-3,2,-3,566,1,FALSE,1,< 5,1,0,1
10,6,5,-2,-3,2,-4,599,1,FALSE,1,< 5,2,1,0
10,6,6,-2,-3,1,0,567,1,TRUE,1,< 5,2,0,1
10,6,7,-2,-3,1,-2,503,1,TRUE,1,< 5,1,1,0
10,6,8,-2,-3,1,-2,751,1,TRUE,1,< 5,1,1,0
10,6,9,-2,-3,2,-3,584,1,FALSE,1,< 5,1,0,1
10,6,10,-2,-3,1,-1,632,1,TRUE,1,< 5,2,0,1
10,7,1,9,6,1,9,728,1,TRUE,3,< 5,NA,0,1
10,7,2,9,6,2,5,511,1,FALSE,3,< 5,1,0,1
10,7,3,9,6,1,9,495,1,TRUE,3,< 5,2,0,1
10,7,4,9,6,1,7,526,1,TRUE,3,< 5,1,1,0
10,7,5,9,6,1,9,511,1,TRUE,3,< 5,1,1,0
10,7,6,9,6,1,8,536,1,TRUE,3,< 5,1,1,0
10,7,7,9,6,1,9,496,1,TRUE,3,< 5,1,1,0
10,7,8,9,6,1,8,495,1,TRUE,3,< 5,1,1,0
10,7,9,9,6,1,9,551,1,TRUE,3,< 5,1,1,0
10,7,10,9,6,1,9,552,1,TRUE,3,< 5,1,1,0
10,8,1,6,18,1,7,808,2,FALSE,12,10 - 15,NA,0,1
10,8,2,6,18,2,18,479,2,TRUE,12,10 - 15,1,0,1
10,8,3,6,18,2,18,535,2,TRUE,12,10 - 15,2,1,0
10,8,4,6,18,2,18,551,2,TRUE,12,10 - 15,2,1,0
10,8,5,6,18,2,17,560,2,TRUE,12,10 - 15,2,1,0
10,8,6,6,18,2,19,511,2,TRUE,12,10 - 15,2,1,0
10,8,7,6,18,2,19,527,2,TRUE,12,10 - 15,2,1,0
10,8,8,6,18,2,16,496,2,TRUE,12,10 - 15,2,1,0
10,8,9,6,18,2,17,511,2,TRUE,12,10 - 15,2,1,0
10,8,10,6,18,2,19,544,2,TRUE,12,10 - 15,2,1,0
10,9,1,-11,4,2,4,712,2,TRUE,15,10 - 15,NA,0,1
10,9,2,-11,4,1,-12,495,2,FALSE,15,10 - 15,2,0,1
10,9,3,-11,4,2,4,471,2,TRUE,15,10 - 15,1,0,1
10,9,4,-11,4,2,3,471,2,TRUE,15,10 - 15,2,1,0
10,9,5,-11,4,2,4,519,2,TRUE,15,10 - 15,2,1,0
10,9,6,-11,4,2,5,503,2,TRUE,15,10 - 15,2,1,0
10,9,7,-11,4,2,3,576,2,TRUE,15,10 - 15,2,1,0
10,9,8,-11,4,2,5,631,2,TRUE,15,10 - 15,2,1,0
10,9,9,-11,4,2,4,640,2,TRUE,15,10 - 15,2,1,0
10,9,10,-11,4,2,4,440,2,TRUE,15,10 - 15,2,1,0
10,10,1,-4,-2,1,-5,1007,2,FALSE,2,< 5,NA,0,1
10,10,2,-4,-2,2,0,456,2,TRUE,2,< 5,1,0,1
10,10,3,-4,-2,2,-1,502,2,TRUE,2,< 5,2,1,0
10,10,4,-4,-2,1,-5,518,2,FALSE,2,< 5,2,0,1
10,10,5,-4,-2,2,-2,495,2,TRUE,2,< 5,1,0,1
10,10,6,-4,-2,2,-3,496,2,TRUE,2,< 5,2,1,0
10,10,7,-4,-2,2,0,528,2,TRUE,2,< 5,2,1,0
10,10,8,-4,-2,2,-3,608,2,TRUE,2,< 5,2,1,0
10,10,9,-4,-2,1,-5,528,2,FALSE,2,< 5,2,0,1
10,10,10,-4,-2,2,-2,511,2,TRUE,2,< 5,1,0,1
10,11,1,-2,26,2,26,720,2,TRUE,28,> 15,NA,0,1
10,11,2,-2,26,2,26,953,2,TRUE,28,> 15,2,1,0
10,11,3,-2,26,2,27,496,2,TRUE,28,> 15,2,1,0
10,11,4,-2,26,2,25,535,2,TRUE,28,> 15,2,1,0
10,11,5,-2,26,2,27,560,2,TRUE,28,> 15,2,1,0
10,11,6,-2,26,2,26,543,2,TRUE,28,> 15,2,1,0
10,11,7,-2,26,2,27,504,2,TRUE,28,> 15,2,1,0
10,11,8,-2,26,2,27,497,2,TRUE,28,> 15,2,1,0
10,11,9,-2,26,2,25,447,2,TRUE,28,> 15,2,1,0
10,11,10,-2,26,2,26,456,2,TRUE,28,> 15,2,1,0
10,12,1,-3,-8,2,-7,793,1,FALSE,5,< 5,NA,0,1
10,12,2,-3,-8,1,-2,511,1,TRUE,5,< 5,2,0,1
10,12,3,-3,-8,1,-2,2647,1,TRUE,5,< 5,1,1,0
10,12,4,-3,-8,1,-5,647,1,TRUE,5,< 5,1,1,0
10,12,5,-3,-8,2,-6,463,1,FALSE,5,< 5,1,0,1
10,12,6,-3,-8,1,-4,448,1,TRUE,5,< 5,2,0,1
10,12,7,-3,-8,1,-3,431,1,TRUE,5,< 5,1,1,0
10,12,8,-3,-8,1,-3,376,1,TRUE,5,< 5,1,1,0
10,12,9,-3,-8,1,-4,407,1,TRUE,5,< 5,1,1,0
10,12,10,-3,-8,1,-3,408,1,TRUE,5,< 5,1,1,0
10,13,1,23,5,1,21,744,1,TRUE,18,> 15,NA,0,1
10,13,2,23,5,1,23,552,1,TRUE,18,> 15,1,1,0
10,13,3,23,5,1,22,623,1,TRUE,18,> 15,1,1,0
10,13,4,23,5,1,23,511,1,TRUE,18,> 15,1,1,0
10,13,5,23,5,1,22,502,1,TRUE,18,> 15,1,1,0
10,13,6,23,5,1,23,576,1,TRUE,18,> 15,1,1,0
10,13,7,23,5,1,23,535,1,TRUE,18,> 15,1,1,0
10,13,8,23,5,1,22,557,1,TRUE,18,> 15,1,1,0
10,13,9,23,5,1,24,536,1,TRUE,18,> 15,1,1,0
10,13,10,23,5,1,23,479,1,TRUE,18,> 15,1,1,0
10,14,1,-1,-3,1,-2,808,1,TRUE,2,< 5,NA,0,1
10,14,2,-1,-3,2,-4,391,1,FALSE,2,< 5,1,0,1
10,14,3,-1,-3,1,0,391,1,TRUE,2,< 5,2,0,1
10,14,4,-1,-3,1,0,398,1,TRUE,2,< 5,1,1,0
10,14,5,-1,-3,1,-1,495,1,TRUE,2,< 5,1,1,0
10,14,6,-1,-3,1,-1,464,1,TRUE,2,< 5,1,1,0
10,14,7,-1,-3,1,-3,455,1,TRUE,2,< 5,1,1,0
10,14,8,-1,-3,1,-2,424,1,TRUE,2,< 5,1,1,0
10,14,9,-1,-3,1,1,416,1,TRUE,2,< 5,1,1,0
10,14,10,-1,-3,1,-2,479,1,TRUE,2,< 5,1,1,0
10,15,1,-1,6,1,-1,713,2,FALSE,7,5 - 10,NA,0,1
10,15,2,-1,6,2,5,424,2,TRUE,7,5 - 10,1,0,1
10,15,3,-1,6,2,7,392,2,TRUE,7,5 - 10,2,1,0
10,15,4,-1,6,2,4,504,2,TRUE,7,5 - 10,2,1,0
10,15,5,-1,6,2,6,398,2,TRUE,7,5 - 10,2,1,0
10,15,6,-1,6,2,6,431,2,TRUE,7,5 - 10,2,1,0
10,15,7,-1,6,2,6,432,2,TRUE,7,5 - 10,2,1,0
10,15,8,-1,6,2,5,383,2,TRUE,7,5 - 10,2,1,0
10,15,9,-1,6,2,6,367,2,TRUE,7,5 - 10,2,1,0
10,15,10,-1,6,2,7,528,2,TRUE,7,5 - 10,2,1,0
10,16,1,18,4,2,5,968,1,FALSE,14,10 - 15,NA,0,1
10,16,2,18,4,1,19,558,1,TRUE,14,10 - 15,2,0,1
10,16,3,18,4,1,19,807,1,TRUE,14,10 - 15,1,1,0
10,16,4,18,4,1,18,527,1,TRUE,14,10 - 15,1,1,0
10,16,5,18,4,1,18,479,1,TRUE,14,10 - 15,1,1,0
10,16,6,18,4,1,20,455,1,TRUE,14,10 - 15,1,1,0
10,16,7,18,4,1,20,454,1,TRUE,14,10 - 15,1,1,0
10,16,8,18,4,1,17,448,1,TRUE,14,10 - 15,1,1,0
10,16,9,18,4,1,17,462,1,TRUE,14,10 - 15,1,1,0
10,16,10,18,4,1,19,496,1,TRUE,14,10 - 15,1,1,0
10,17,1,8,-4,1,8,760,1,TRUE,12,10 - 15,NA,0,1
10,17,2,8,-4,2,-5,439,1,FALSE,12,10 - 15,1,0,1
10,17,3,8,-4,1,9,447,1,TRUE,12,10 - 15,2,0,1
10,17,4,8,-4,1,8,438,1,TRUE,12,10 - 15,1,1,0
10,17,5,8,-4,1,8,544,1,TRUE,12,10 - 15,1,1,0
10,17,6,8,-4,1,9,391,1,TRUE,12,10 - 15,1,1,0
10,17,7,8,-4,1,8,534,1,TRUE,12,10 - 15,1,1,0
10,17,8,8,-4,1,7,432,1,TRUE,12,10 - 15,1,1,0
10,17,9,8,-4,1,8,503,1,TRUE,12,10 - 15,1,1,0
10,17,10,8,-4,1,7,464,1,TRUE,12,10 - 15,1,1,0
10,18,1,2,-13,1,1,856,1,TRUE,15,10 - 15,NA,0,1
10,18,2,2,-13,2,-14,615,1,FALSE,15,10 - 15,1,0,1
10,18,3,2,-13,1,1,456,1,TRUE,15,10 - 15,2,0,1
10,18,4,2,-13,1,1,416,1,TRUE,15,10 - 15,1,1,0
10,18,5,2,-13,1,2,430,1,TRUE,15,10 - 15,1,1,0
10,18,6,2,-13,1,1,392,1,TRUE,15,10 - 15,1,1,0
10,18,7,2,-13,1,2,351,1,TRUE,15,10 - 15,1,1,0
10,18,8,2,-13,1,3,368,1,TRUE,15,10 - 15,1,1,0
10,18,9,2,-13,1,2,478,1,TRUE,15,10 - 15,1,1,0
10,18,10,2,-13,1,1,336,1,TRUE,15,10 - 15,1,1,0
10,19,1,-6,-6,1,-6,681,1,TRUE,0,< 5,NA,0,1
10,19,2,-6,-6,2,-7,432,1,FALSE,0,< 5,1,0,1
10,19,3,-6,-6,1,-7,495,1,TRUE,0,< 5,2,0,1
10,19,4,-6,-6,2,-7,447,1,FALSE,0,< 5,1,0,1
10,19,5,-6,-6,1,-6,408,1,TRUE,0,< 5,2,0,1
10,19,6,-6,-6,1,-6,635,1,TRUE,0,< 5,1,1,0
10,19,7,-6,-6,1,-5,496,1,TRUE,0,< 5,1,1,0
10,19,8,-6,-6,1,-6,462,1,TRUE,0,< 5,1,1,0
10,19,9,-6,-6,1,-7,480,1,TRUE,0,< 5,1,1,0
10,19,10,-6,-6,1,-6,383,1,TRUE,0,< 5,1,1,0
10,20,1,-1,-3,1,-1,680,1,TRUE,2,< 5,NA,0,1
10,20,2,-1,-3,2,-3,393,1,FALSE,2,< 5,1,0,1
10,20,3,-1,-3,1,-2,455,1,TRUE,2,< 5,2,0,1
10,20,4,-1,-3,1,-1,424,1,TRUE,2,< 5,1,1,0
10,20,5,-1,-3,1,-1,399,1,TRUE,2,< 5,1,1,0
10,20,6,-1,-3,1,-2,397,1,TRUE,2,< 5,1,1,0
10,20,7,-1,-3,1,-1,431,1,TRUE,2,< 5,1,1,0
10,20,8,-1,-3,1,-1,382,1,TRUE,2,< 5,1,1,0
10,20,9,-1,-3,1,-2,392,1,TRUE,2,< 5,1,1,0
10,20,10,-1,-3,1,0,398,1,TRUE,2,< 5,1,1,0
11,1,1,-17,-1,2,0,1168,2,TRUE,16,> 15,NA,0,1
11,1,2,-17,-1,1,-16,616,2,FALSE,16,> 15,2,0,1
11,1,3,-17,-1,2,-1,349,2,TRUE,16,> 15,1,0,1
11,1,4,-17,-1,2,0,381,2,TRUE,16,> 15,2,1,0
11,1,5,-17,-1,2,-1,382,2,TRUE,16,> 15,2,1,0
11,1,6,-17,-1,2,0,358,2,TRUE,16,> 15,2,1,0
11,1,7,-17,-1,1,-17,334,2,FALSE,16,> 15,2,0,1
11,1,8,-17,-1,2,-1,294,2,TRUE,16,> 15,1,0,1
11,1,9,-17,-1,2,-1,280,2,TRUE,16,> 15,2,1,0
11,1,10,-17,-1,2,-1,320,2,TRUE,16,> 15,2,1,0
11,2,1,-5,5,1,-5,817,2,FALSE,10,5 - 10,NA,0,1
11,2,2,-5,5,1,-4,375,2,FALSE,10,5 - 10,1,1,0
11,2,3,-5,5,2,4,327,2,TRUE,10,5 - 10,1,0,1
11,2,4,-5,5,2,4,358,2,TRUE,10,5 - 10,2,1,0
11,2,5,-5,5,2,4,369,2,TRUE,10,5 - 10,2,1,0
11,2,6,-5,5,2,5,390,2,TRUE,10,5 - 10,2,1,0
11,2,7,-5,5,2,6,373,2,TRUE,10,5 - 10,2,1,0
11,2,8,-5,5,2,5,398,2,TRUE,10,5 - 10,2,1,0
11,2,9,-5,5,2,2,342,2,TRUE,10,5 - 10,2,1,0
11,2,10,-5,5,2,6,353,2,TRUE,10,5 - 10,2,1,0
11,3,1,-1,2,2,3,519,2,TRUE,3,< 5,NA,0,1
11,3,2,-1,2,2,3,336,2,TRUE,3,< 5,2,1,0
11,3,3,-1,2,2,1,334,2,TRUE,3,< 5,2,1,0
11,3,4,-1,2,2,0,369,2,TRUE,3,< 5,2,1,0
11,3,5,-1,2,2,2,359,2,TRUE,3,< 5,2,1,0
11,3,6,-1,2,2,1,317,2,TRUE,3,< 5,2,1,0
11,3,7,-1,2,2,3,345,2,TRUE,3,< 5,2,1,0
11,3,8,-1,2,2,3,343,2,TRUE,3,< 5,2,1,0
11,3,9,-1,2,2,1,319,2,TRUE,3,< 5,2,1,0
11,3,10,-1,2,2,1,337,2,TRUE,3,< 5,2,1,0
11,4,1,4,17,2,17,392,2,TRUE,13,10 - 15,NA,0,1
11,4,2,4,17,2,16,385,2,TRUE,13,10 - 15,2,1,0
11,4,3,4,17,2,16,381,2,TRUE,13,10 - 15,2,1,0
11,4,4,4,17,2,18,359,2,TRUE,13,10 - 15,2,1,0
11,4,5,4,17,2,17,382,2,TRUE,13,10 - 15,2,1,0
11,4,6,4,17,2,18,377,2,TRUE,13,10 - 15,2,1,0
11,4,7,4,17,2,15,366,2,TRUE,13,10 - 15,2,1,0
11,4,8,4,17,2,17,361,2,TRUE,13,10 - 15,2,1,0
11,4,9,4,17,2,14,381,2,TRUE,13,10 - 15,2,1,0
11,4,10,4,17,2,15,381,2,TRUE,13,10 - 15,2,1,0
11,5,1,3,3,2,2,761,1,FALSE,0,< 5,NA,0,1
11,5,2,3,3,2,3,289,1,FALSE,0,< 5,2,1,0
11,5,3,3,3,2,3,297,1,FALSE,0,< 5,2,1,0
11,5,4,3,3,2,4,369,1,FALSE,0,< 5,2,1,0
11,5,5,3,3,2,3,495,1,FALSE,0,< 5,2,1,0
11,5,6,3,3,2,2,383,1,FALSE,0,< 5,2,1,0
11,5,7,3,3,2,3,335,1,FALSE,0,< 5,2,1,0
11,5,8,3,3,2,4,328,1,FALSE,0,< 5,2,1,0
11,5,9,3,3,2,3,335,1,FALSE,0,< 5,2,1,0
11,5,10,3,3,2,2,339,1,FALSE,0,< 5,2,1,0
11,6,1,1,6,2,5,553,2,TRUE,5,< 5,NA,0,1
11,6,2,1,6,2,5,344,2,TRUE,5,< 5,2,1,0
11,6,3,1,6,2,6,294,2,TRUE,5,< 5,2,1,0
11,6,4,1,6,2,8,335,2,TRUE,5,< 5,2,1,0
11,6,5,1,6,2,6,351,2,TRUE,5,< 5,2,1,0
11,6,6,1,6,2,6,295,2,TRUE,5,< 5,2,1,0
11,6,7,1,6,2,7,322,2,TRUE,5,< 5,2,1,0
11,6,8,1,6,2,4,317,2,TRUE,5,< 5,2,1,0
11,6,9,1,6,2,6,337,2,TRUE,5,< 5,2,1,0
11,6,10,1,6,2,6,302,2,TRUE,5,< 5,2,1,0
11,7,1,-6,6,2,5,520,2,TRUE,12,10 - 15,NA,0,1
11,7,2,-6,6,2,6,279,2,TRUE,12,10 - 15,2,1,0
11,7,3,-6,6,2,5,304,2,TRUE,12,10 - 15,2,1,0
11,7,4,-6,6,2,6,281,2,TRUE,12,10 - 15,2,1,0
11,7,5,-6,6,2,7,280,2,TRUE,12,10 - 15,2,1,0
11,7,6,-6,6,2,7,286,2,TRUE,12,10 - 15,2,1,0
11,7,7,-6,6,2,8,295,2,TRUE,12,10 - 15,2,1,0
11,7,8,-6,6,2,7,262,2,TRUE,12,10 - 15,2,1,0
11,7,9,-6,6,2,5,280,2,TRUE,12,10 - 15,2,1,0
11,7,10,-6,6,2,8,271,2,TRUE,12,10 - 15,2,1,0
11,8,1,10,2,2,0,577,1,FALSE,8,5 - 10,NA,0,1
11,8,2,10,2,2,2,339,1,FALSE,8,5 - 10,2,1,0
11,8,3,10,2,2,2,311,1,FALSE,8,5 - 10,2,1,0
11,8,4,10,2,2,2,263,1,FALSE,8,5 - 10,2,1,0
11,8,5,10,2,2,2,254,1,FALSE,8,5 - 10,2,1,0
11,8,6,10,2,1,9,661,1,TRUE,8,5 - 10,2,0,1
11,8,7,10,2,1,10,360,1,TRUE,8,5 - 10,1,1,0
11,8,8,10,2,1,11,347,1,TRUE,8,5 - 10,1,1,0
11,8,9,10,2,1,10,1820,1,TRUE,8,5 - 10,1,1,0
11,8,10,10,2,1,10,415,1,TRUE,8,5 - 10,1,1,0
11,9,1,14,4,1,13,392,1,TRUE,10,5 - 10,NA,0,1
11,9,2,14,4,1,13,384,1,TRUE,10,5 - 10,1,1,0
11,9,3,14,4,1,14,353,1,TRUE,10,5 - 10,1,1,0
11,9,4,14,4,1,13,358,1,TRUE,10,5 - 10,1,1,0
11,9,5,14,4,1,14,336,1,TRUE,10,5 - 10,1,1,0
11,9,6,14,4,1,15,345,1,TRUE,10,5 - 10,1,1,0
11,9,7,14,4,1,13,342,1,TRUE,10,5 - 10,1,1,0
11,9,8,14,4,1,14,335,1,TRUE,10,5 - 10,1,1,0
11,9,9,14,4,1,13,393,1,TRUE,10,5 - 10,1,1,0
11,9,10,14,4,1,14,319,1,TRUE,10,5 - 10,1,1,0
11,10,1,-1,-6,1,-1,385,1,TRUE,5,< 5,NA,0,1
11,10,2,-1,-6,2,-7,319,1,FALSE,5,< 5,1,0,1
11,10,3,-1,-6,1,-1,368,1,TRUE,5,< 5,2,0,1
11,10,4,-1,-6,1,-2,343,1,TRUE,5,< 5,1,1,0
11,10,5,-1,-6,1,1,327,1,TRUE,5,< 5,1,1,0
11,10,6,-1,-6,1,1,352,1,TRUE,5,< 5,1,1,0
11,10,7,-1,-6,1,1,304,1,TRUE,5,< 5,1,1,0
11,10,8,-1,-6,2,-4,319,1,FALSE,5,< 5,1,0,1
11,10,9,-1,-6,1,0,344,1,TRUE,5,< 5,2,0,1
11,10,10,-1,-6,1,1,328,1,TRUE,5,< 5,1,1,0
11,11,1,-1,-17,2,-18,560,1,FALSE,16,> 15,NA,0,1
11,11,2,-1,-17,1,1,333,1,TRUE,16,> 15,2,0,1
11,11,3,-1,-17,1,-1,327,1,TRUE,16,> 15,1,1,0
11,11,4,-1,-17,2,-16,311,1,FALSE,16,> 15,1,0,1
11,11,5,-1,-17,1,0,343,1,TRUE,16,> 15,2,0,1
11,11,6,-1,-17,1,-2,270,1,TRUE,16,> 15,1,1,0
11,11,7,-1,-17,1,0,271,1,TRUE,16,> 15,1,1,0
11,11,8,-1,-17,1,-1,319,1,TRUE,16,> 15,1,1,0
11,11,9,-1,-17,1,0,278,1,TRUE,16,> 15,1,1,0
11,11,10,-1,-17,1,0,429,1,TRUE,16,> 15,1,1,0
11,12,1,19,6,1,19,415,1,TRUE,13,10 - 15,NA,0,1
11,12,2,19,6,1,19,393,1,TRUE,13,10 - 15,1,1,0
11,12,3,19,6,1,18,365,1,TRUE,13,10 - 15,1,1,0
11,12,4,19,6,1,18,334,1,TRUE,13,10 - 15,1,1,0
11,12,5,19,6,1,19,1159,1,TRUE,13,10 - 15,1,1,0
11,12,6,19,6,1,19,465,1,TRUE,13,10 - 15,1,1,0
11,12,7,19,6,1,19,597,1,TRUE,13,10 - 15,1,1,0
11,12,8,19,6,1,21,766,1,TRUE,13,10 - 15,1,1,0
11,12,9,19,6,1,18,431,1,TRUE,13,10 - 15,1,1,0
11,12,10,19,6,1,17,326,1,TRUE,13,10 - 15,1,1,0
11,13,1,10,-11,1,10,384,1,TRUE,21,> 15,NA,0,1
11,13,2,10,-11,1,10,349,1,TRUE,21,> 15,1,1,0
11,13,3,10,-11,1,10,422,1,TRUE,21,> 15,1,1,0
11,13,4,10,-11,1,10,433,1,TRUE,21,> 15,1,1,0
11,13,5,10,-11,1,9,7254,1,TRUE,21,> 15,1,1,0
11,13,6,10,-11,1,9,351,1,TRUE,21,> 15,1,1,0
11,13,7,10,-11,1,9,521,1,TRUE,21,> 15,1,1,0
11,13,8,10,-11,1,10,1897,1,TRUE,21,> 15,1,1,0
11,13,9,10,-11,1,12,381,1,TRUE,21,> 15,1,1,0
11,13,10,10,-11,1,9,367,1,TRUE,21,> 15,1,1,0
11,14,1,-3,-7,1,-3,423,1,TRUE,4,< 5,NA,0,1
11,14,2,-3,-7,2,-6,351,1,FALSE,4,< 5,1,0,1
11,14,3,-3,-7,1,-2,353,1,TRUE,4,< 5,2,0,1
11,14,4,-3,-7,1,-2,400,1,TRUE,4,< 5,1,1,0
11,14,5,-3,-7,2,-8,377,1,FALSE,4,< 5,1,0,1
11,14,6,-3,-7,1,-2,369,1,TRUE,4,< 5,2,0,1
11,14,7,-3,-7,1,-2,345,1,TRUE,4,< 5,1,1,0
11,14,8,-3,-7,1,-3,342,1,TRUE,4,< 5,1,1,0
11,14,9,-3,-7,2,-8,385,1,FALSE,4,< 5,1,0,1
11,14,10,-3,-7,1,-2,342,1,TRUE,4,< 5,2,0,1
11,15,1,-4,3,1,-6,385,2,FALSE,7,5 - 10,NA,0,1
11,15,2,-4,3,2,3,358,2,TRUE,7,5 - 10,1,0,1
11,15,3,-4,3,2,1,327,2,TRUE,7,5 - 10,2,1,0
11,15,4,-4,3,2,4,311,2,TRUE,7,5 - 10,2,1,0
11,15,5,-4,3,2,1,302,2,TRUE,7,5 - 10,2,1,0
11,15,6,-4,3,2,4,313,2,TRUE,7,5 - 10,2,1,0
11,15,7,-4,3,2,4,302,2,TRUE,7,5 - 10,2,1,0
11,15,8,-4,3,2,3,313,2,TRUE,7,5 - 10,2,1,0
11,15,9,-4,3,2,3,321,2,TRUE,7,5 - 10,2,1,0
11,15,10,-4,3,2,4,278,2,TRUE,7,5 - 10,2,1,0
11,16,1,-1,-9,2,-9,863,1,FALSE,8,5 - 10,NA,0,1
11,16,2,-1,-9,1,-2,335,1,TRUE,8,5 - 10,2,0,1
11,16,3,-1,-9,1,-1,337,1,TRUE,8,5 - 10,1,1,0
11,16,4,-1,-9,2,-9,302,1,FALSE,8,5 - 10,1,0,1
11,16,5,-1,-9,1,-2,351,1,TRUE,8,5 - 10,2,0,1
11,16,6,-1,-9,1,-1,326,1,TRUE,8,5 - 10,1,1,0
11,16,7,-1,-9,1,0,295,1,TRUE,8,5 - 10,1,1,0
11,16,8,-1,-9,1,-2,302,1,TRUE,8,5 - 10,1,1,0
11,16,9,-1,-9,1,-3,287,1,TRUE,8,5 - 10,1,1,0
11,16,10,-1,-9,1,0,303,1,TRUE,8,5 - 10,1,1,0
11,17,1,1,-2,1,1,361,1,TRUE,3,< 5,NA,0,1
11,17,2,1,-2,2,-3,329,1,FALSE,3,< 5,1,0,1
11,17,3,1,-2,1,1,296,1,TRUE,3,< 5,2,0,1
11,17,4,1,-2,2,-3,343,1,FALSE,3,< 5,1,0,1
11,17,5,1,-2,1,0,337,1,TRUE,3,< 5,2,0,1
11,17,6,1,-2,1,0,313,1,TRUE,3,< 5,1,1,0
11,17,7,1,-2,2,0,334,1,FALSE,3,< 5,1,0,1
11,17,8,1,-2,2,-1,321,1,FALSE,3,< 5,2,1,0
11,17,9,1,-2,1,0,313,1,TRUE,3,< 5,2,0,1
11,17,10,1,-2,1,0,303,1,TRUE,3,< 5,1,1,0
11,18,1,13,9,2,10,544,1,FALSE,4,< 5,NA,0,1
11,18,2,13,9,1,14,407,1,TRUE,4,< 5,2,0,1
11,18,3,13,9,2,9,498,1,FALSE,4,< 5,1,0,1
11,18,4,13,9,1,12,377,1,TRUE,4,< 5,2,0,1
11,18,5,13,9,1,15,390,1,TRUE,4,< 5,1,1,0
11,18,6,13,9,1,13,398,1,TRUE,4,< 5,1,1,0
11,18,7,13,9,2,10,392,1,FALSE,4,< 5,1,0,1
11,18,8,13,9,1,13,358,1,TRUE,4,< 5,2,0,1
11,18,9,13,9,1,12,373,1,TRUE,4,< 5,1,1,0
11,18,10,13,9,1,13,406,1,TRUE,4,< 5,1,1,0
11,19,1,1,-1,2,-1,496,1,FALSE,2,< 5,NA,0,1
11,19,2,1,-1,1,1,375,1,TRUE,2,< 5,2,0,1
11,19,3,1,-1,2,-1,367,1,FALSE,2,< 5,1,0,1
11,19,4,1,-1,1,1,343,1,TRUE,2,< 5,2,0,1
11,19,5,1,-1,1,0,334,1,TRUE,2,< 5,1,1,0
11,19,6,1,-1,1,-1,349,1,TRUE,2,< 5,1,1,0
11,19,7,1,-1,2,-1,390,1,FALSE,2,< 5,1,0,1
11,19,8,1,-1,2,-1,371,1,FALSE,2,< 5,2,1,0
11,19,9,1,-1,1,3,310,1,TRUE,2,< 5,2,0,1
11,19,10,1,-1,1,1,368,1,TRUE,2,< 5,1,1,0
11,20,1,-12,-7,1,-11,560,2,FALSE,5,< 5,NA,0,1
11,20,2,-12,-7,2,-6,389,2,TRUE,5,< 5,1,0,1
11,20,3,-12,-7,2,-7,320,2,TRUE,5,< 5,2,1,0
11,20,4,-12,-7,1,-12,1542,2,FALSE,5,< 5,2,0,1
11,20,5,-12,-7,2,-8,326,2,TRUE,5,< 5,1,0,1
11,20,6,-12,-7,2,-6,303,2,TRUE,5,< 5,2,1,0
11,20,7,-12,-7,2,-8,390,2,TRUE,5,< 5,2,1,0
11,20,8,-12,-7,2,-6,350,2,TRUE,5,< 5,2,1,0
11,20,9,-12,-7,2,-7,374,2,TRUE,5,< 5,2,1,0
11,20,10,-12,-7,1,-11,319,2,FALSE,5,< 5,2,0,1
12,1,1,-9,-5,1,-9,2193,2,FALSE,4,< 5,NA,0,1
12,1,2,-9,-5,2,-4,705,2,TRUE,4,< 5,1,0,1
12,1,3,-9,-5,2,-5,676,2,TRUE,4,< 5,2,1,0
12,1,4,-9,-5,1,-11,472,2,FALSE,4,< 5,2,0,1
12,1,5,-9,-5,2,-5,488,2,TRUE,4,< 5,1,0,1
12,1,6,-9,-5,2,-7,414,2,TRUE,4,< 5,2,1,0
12,1,7,-9,-5,2,-6,433,2,TRUE,4,< 5,2,1,0
12,1,8,-9,-5,2,-4,513,2,TRUE,4,< 5,2,1,0
12,1,9,-9,-5,2,-7,456,2,TRUE,4,< 5,2,1,0
12,1,10,-9,-5,2,-6,464,2,TRUE,4,< 5,2,1,0
12,2,1,12,0,1,11,752,1,TRUE,12,10 - 15,NA,0,1
12,2,2,12,0,2,0,412,1,FALSE,12,10 - 15,1,0,1
12,2,3,12,0,1,14,384,1,TRUE,12,10 - 15,2,0,1
12,2,4,12,0,1,12,416,1,TRUE,12,10 - 15,1,1,0
12,2,5,12,0,1,12,409,1,TRUE,12,10 - 15,1,1,0
12,2,6,12,0,1,12,368,1,TRUE,12,10 - 15,1,1,0
12,2,7,12,0,1,12,324,1,TRUE,12,10 - 15,1,1,0
12,2,8,12,0,1,12,348,1,TRUE,12,10 - 15,1,1,0
12,2,9,12,0,1,13,384,1,TRUE,12,10 - 15,1,1,0
12,2,10,12,0,1,12,445,1,TRUE,12,10 - 15,1,1,0
12,3,1,1,-10,1,-1,1224,1,TRUE,11,10 - 15,NA,0,1
12,3,2,1,-10,2,-11,364,1,FALSE,11,10 - 15,1,0,1
12,3,3,1,-10,1,2,400,1,TRUE,11,10 - 15,2,0,1
12,3,4,1,-10,1,2,416,1,TRUE,11,10 - 15,1,1,0
12,3,5,1,-10,1,1,340,1,TRUE,11,10 - 15,1,1,0
12,3,6,1,-10,1,4,336,1,TRUE,11,10 - 15,1,1,0
12,3,7,1,-10,1,1,341,1,TRUE,11,10 - 15,1,1,0
12,3,8,1,-10,1,0,340,1,TRUE,11,10 - 15,1,1,0
12,3,9,1,-10,1,1,300,1,TRUE,11,10 - 15,1,1,0
12,3,10,1,-10,1,0,357,1,TRUE,11,10 - 15,1,1,0
12,4,1,3,4,1,2,749,2,FALSE,1,< 5,NA,0,1
12,4,2,3,4,2,4,276,2,TRUE,1,< 5,1,0,1
12,4,3,3,4,2,3,352,2,TRUE,1,< 5,2,1,0
12,4,4,3,4,2,2,384,2,TRUE,1,< 5,2,1,0
12,4,5,3,4,1,3,402,2,FALSE,1,< 5,2,0,1
12,4,6,3,4,1,4,301,2,FALSE,1,< 5,1,1,0
12,4,7,3,4,1,2,336,2,FALSE,1,< 5,1,1,0
12,4,8,3,4,2,3,469,2,TRUE,1,< 5,1,0,1
12,4,9,3,4,2,4,457,2,TRUE,1,< 5,2,1,0
12,4,10,3,4,2,4,524,2,TRUE,1,< 5,2,1,0
12,5,1,2,4,1,1,957,2,FALSE,2,< 5,NA,0,1
12,5,2,2,4,2,2,312,2,TRUE,2,< 5,1,0,1
12,5,3,2,4,2,4,316,2,TRUE,2,< 5,2,1,0
12,5,4,2,4,1,2,356,2,FALSE,2,< 5,2,0,1
12,5,5,2,4,2,6,328,2,TRUE,2,< 5,1,0,1
12,5,6,2,4,2,5,324,2,TRUE,2,< 5,2,1,0
12,5,7,2,4,2,5,308,2,TRUE,2,< 5,2,1,0
12,5,8,2,4,2,2,328,2,TRUE,2,< 5,2,1,0
12,5,9,2,4,2,4,368,2,TRUE,2,< 5,2,1,0
12,5,10,2,4,2,3,352,2,TRUE,2,< 5,2,1,0
12,6,1,8,0,1,9,741,1,TRUE,8,5 - 10,NA,0,1
12,6,2,8,0,2,0,312,1,FALSE,8,5 - 10,1,0,1
12,6,3,8,0,1,9,404,1,TRUE,8,5 - 10,2,0,1
12,6,4,8,0,1,9,341,1,TRUE,8,5 - 10,1,1,0
12,6,5,8,0,1,9,312,1,TRUE,8,5 - 10,1,1,0
12,6,6,8,0,1,9,337,1,TRUE,8,5 - 10,1,1,0
12,6,7,8,0,1,8,296,1,TRUE,8,5 - 10,1,1,0
12,6,8,8,0,1,7,348,1,TRUE,8,5 - 10,1,1,0
12,6,9,8,0,1,7,348,1,TRUE,8,5 - 10,1,1,0
12,6,10,8,0,1,8,312,1,TRUE,8,5 - 10,1,1,0
12,7,1,5,-7,1,5,640,1,TRUE,12,10 - 15,NA,0,1
12,7,2,5,-7,2,-7,352,1,FALSE,12,10 - 15,1,0,1
12,7,3,5,-7,1,5,348,1,TRUE,12,10 - 15,2,0,1
12,7,4,5,-7,1,5,324,1,TRUE,12,10 - 15,1,1,0
12,7,5,5,-7,1,6,344,1,TRUE,12,10 - 15,1,1,0
12,7,6,5,-7,1,5,312,1,TRUE,12,10 - 15,1,1,0
12,7,7,5,-7,1,4,308,1,TRUE,12,10 - 15,1,1,0
12,7,8,5,-7,1,6,284,1,TRUE,12,10 - 15,1,1,0
12,7,9,5,-7,1,7,332,1,TRUE,12,10 - 15,1,1,0
12,7,10,5,-7,1,6,256,1,TRUE,12,10 - 15,1,1,0
12,8,1,0,-1,1,1,513,1,TRUE,1,< 5,NA,0,1
12,8,2,0,-1,2,0,308,1,FALSE,1,< 5,1,0,1
12,8,3,0,-1,1,2,370,1,TRUE,1,< 5,2,0,1
12,8,4,0,-1,2,-1,296,1,FALSE,1,< 5,1,0,1
12,8,5,0,-1,1,1,381,1,TRUE,1,< 5,2,0,1
12,8,6,0,-1,1,2,408,1,TRUE,1,< 5,1,1,0
12,8,7,0,-1,1,1,304,1,TRUE,1,< 5,1,1,0
12,8,8,0,-1,1,-2,304,1,TRUE,1,< 5,1,1,0
12,8,9,0,-1,1,0,393,1,TRUE,1,< 5,1,1,0
12,8,10,0,-1,1,-2,320,1,TRUE,1,< 5,1,1,0
12,9,1,-2,-10,2,-11,777,1,FALSE,8,5 - 10,NA,0,1
12,9,2,-2,-10,1,-2,412,1,TRUE,8,5 - 10,2,0,1
12,9,3,-2,-10,1,-3,449,1,TRUE,8,5 - 10,1,1,0
12,9,4,-2,-10,1,-4,664,1,TRUE,8,5 - 10,1,1,0
12,9,5,-2,-10,1,-2,348,1,TRUE,8,5 - 10,1,1,0
12,9,6,-2,-10,1,-2,388,1,TRUE,8,5 - 10,1,1,0
12,9,7,-2,-10,1,-2,328,1,TRUE,8,5 - 10,1,1,0
12,9,8,-2,-10,1,-3,380,1,TRUE,8,5 - 10,1,1,0
12,9,9,-2,-10,1,-2,325,1,TRUE,8,5 - 10,1,1,0
12,9,10,-2,-10,1,-1,452,1,TRUE,8,5 - 10,1,1,0
12,10,1,1,-7,1,-1,568,1,TRUE,8,5 - 10,NA,0,1
12,10,2,1,-7,2,-7,408,1,FALSE,8,5 - 10,1,0,1
12,10,3,1,-7,1,1,338,1,TRUE,8,5 - 10,2,0,1
12,10,4,1,-7,1,1,300,1,TRUE,8,5 - 10,1,1,0
12,10,5,1,-7,1,1,348,1,TRUE,8,5 - 10,1,1,0
12,10,6,1,-7,1,1,376,1,TRUE,8,5 - 10,1,1,0
12,10,7,1,-7,1,1,341,1,TRUE,8,5 - 10,1,1,0
12,10,8,1,-7,1,0,309,1,TRUE,8,5 - 10,1,1,0
12,10,9,1,-7,1,1,308,1,TRUE,8,5 - 10,1,1,0
12,10,10,1,-7,1,1,312,1,TRUE,8,5 - 10,1,1,0
12,11,1,3,3,1,1,524,1,TRUE,0,< 5,NA,0,1
12,11,2,3,3,2,5,357,1,FALSE,0,< 5,1,0,1
12,11,3,3,3,2,3,300,1,FALSE,0,< 5,2,1,0
12,11,4,3,3,2,3,296,1,FALSE,0,< 5,2,1,0
12,11,5,3,3,2,3,264,1,FALSE,0,< 5,2,1,0
12,11,6,3,3,2,3,244,1,FALSE,0,< 5,2,1,0
12,11,7,3,3,2,2,260,1,FALSE,0,< 5,2,1,0
12,11,8,3,3,2,4,220,1,FALSE,0,< 5,2,1,0
12,11,9,3,3,2,5,220,1,FALSE,0,< 5,2,1,0
12,11,10,3,3,2,5,204,1,FALSE,0,< 5,2,1,0
12,12,1,-5,7,1,-5,648,2,FALSE,12,10 - 15,NA,0,1
12,12,2,-5,7,2,8,377,2,TRUE,12,10 - 15,1,0,1
12,12,3,-5,7,2,7,325,2,TRUE,12,10 - 15,2,1,0
12,12,4,-5,7,2,7,236,2,TRUE,12,10 - 15,2,1,0
12,12,5,-5,7,2,7,228,2,TRUE,12,10 - 15,2,1,0
12,12,6,-5,7,2,7,248,2,TRUE,12,10 - 15,2,1,0
12,12,7,-5,7,2,7,224,2,TRUE,12,10 - 15,2,1,0
12,12,8,-5,7,2,6,240,2,TRUE,12,10 - 15,2,1,0
12,12,9,-5,7,2,7,268,2,TRUE,12,10 - 15,2,1,0
12,12,10,-5,7,2,7,280,2,TRUE,12,10 - 15,2,1,0
12,13,1,2,-3,2,-3,753,1,FALSE,5,< 5,NA,0,1
12,13,2,2,-3,1,2,285,1,TRUE,5,< 5,2,0,1
12,13,3,2,-3,1,0,336,1,TRUE,5,< 5,1,1,0
12,13,4,2,-3,1,1,264,1,TRUE,5,< 5,1,1,0
12,13,5,2,-3,1,3,261,1,TRUE,5,< 5,1,1,0
12,13,6,2,-3,1,2,296,1,TRUE,5,< 5,1,1,0
12,13,7,2,-3,1,0,261,1,TRUE,5,< 5,1,1,0
12,13,8,2,-3,1,1,276,1,TRUE,5,< 5,1,1,0
12,13,9,2,-3,1,3,301,1,TRUE,5,< 5,1,1,0
12,13,10,2,-3,1,3,244,1,TRUE,5,< 5,1,1,0
12,14,1,4,-4,1,6,400,1,TRUE,8,5 - 10,NA,0,1
12,14,2,4,-4,2,-3,288,1,FALSE,8,5 - 10,1,0,1
12,14,3,4,-4,1,3,300,1,TRUE,8,5 - 10,2,0,1
12,14,4,4,-4,1,5,240,1,TRUE,8,5 - 10,1,1,0
12,14,5,4,-4,1,4,240,1,TRUE,8,5 - 10,1,1,0
12,14,6,4,-4,1,3,236,1,TRUE,8,5 - 10,1,1,0
12,14,7,4,-4,1,6,268,1,TRUE,8,5 - 10,1,1,0
12,14,8,4,-4,1,3,253,1,TRUE,8,5 - 10,1,1,0
12,14,9,4,-4,1,4,228,1,TRUE,8,5 - 10,1,1,0
12,14,10,4,-4,1,4,224,1,TRUE,8,5 - 10,1,1,0
12,15,1,-5,14,1,-4,420,2,FALSE,19,> 15,NA,0,1
12,15,2,-5,14,2,16,300,2,TRUE,19,> 15,1,0,1
12,15,3,-5,14,2,15,296,2,TRUE,19,> 15,2,1,0
12,15,4,-5,14,2,13,208,2,TRUE,19,> 15,2,1,0
12,15,5,-5,14,2,15,244,2,TRUE,19,> 15,2,1,0
12,15,6,-5,14,2,15,248,2,TRUE,19,> 15,2,1,0
12,15,7,-5,14,2,15,220,2,TRUE,19,> 15,2,1,0
12,15,8,-5,14,2,15,220,2,TRUE,19,> 15,2,1,0
12,15,9,-5,14,2,15,248,2,TRUE,19,> 15,2,1,0
12,15,10,-5,14,2,16,252,2,TRUE,19,> 15,2,1,0
12,16,1,-4,6,2,7,645,2,TRUE,10,5 - 10,NA,0,1
12,16,2,-4,6,1,-4,293,2,FALSE,10,5 - 10,2,0,1
12,16,3,-4,6,2,7,324,2,TRUE,10,5 - 10,1,0,1
12,16,4,-4,6,2,6,253,2,TRUE,10,5 - 10,2,1,0
12,16,5,-4,6,2,7,216,2,TRUE,10,5 - 10,2,1,0
12,16,6,-4,6,2,5,232,2,TRUE,10,5 - 10,2,1,0
12,16,7,-4,6,2,5,232,2,TRUE,10,5 - 10,2,1,0
12,16,8,-4,6,2,5,232,2,TRUE,10,5 - 10,2,1,0
12,16,9,-4,6,2,5,244,2,TRUE,10,5 - 10,2,1,0
12,16,10,-4,6,2,6,244,2,TRUE,10,5 - 10,2,1,0
